 # E (eV)   ldos(E)
 -10.0000    0.4157E+001
  -9.9800    0.4643E+001
  -9.9600    0.5064E+001
  -9.9399    0.5404E+001
  -9.9199    0.5652E+001
  -9.8999    0.5800E+001
  -9.8799    0.5846E+001
  -9.8599    0.5789E+001
  -9.8398    0.5630E+001
  -9.8198    0.5372E+001
  -9.7998    0.5022E+001
  -9.7798    0.4593E+001
  -9.7598    0.4101E+001
  -9.7397    0.3569E+001
  -9.7197    0.3022E+001
  -9.6997    0.2486E+001
  -9.6797    0.1984E+001
  -9.6597    0.1535E+001
  -9.6396    0.1150E+001
  -9.6196    0.8350E+000
  -9.5996    0.5885E+000
  -9.5796    0.4055E+000
  -9.5596    0.2782E+000
  -9.5395    0.1993E+000
  -9.5195    0.1626E+000
  -9.4995    0.1648E+000
  -9.4795    0.2059E+000
  -9.4595    0.2891E+000
  -9.4394    0.4198E+000
  -9.4194    0.6043E+000
  -9.3994    0.8478E+000
  -9.3794    0.1152E+001
  -9.3594    0.1512E+001
  -9.3393    0.1916E+001
  -9.3193    0.2344E+001
  -9.2993    0.2767E+001
  -9.2793    0.3152E+001
  -9.2593    0.3466E+001
  -9.2392    0.3679E+001
  -9.2192    0.3771E+001
  -9.1992    0.3734E+001
  -9.1792    0.3577E+001
  -9.1592    0.3321E+001
  -9.1391    0.3000E+001
  -9.1191    0.2654E+001
  -9.0991    0.2325E+001
  -9.0791    0.2054E+001
  -9.0591    0.1871E+001
  -9.0390    0.1798E+001
  -9.0190    0.1844E+001
  -8.9990    0.2002E+001
  -8.9790    0.2255E+001
  -8.9590    0.2573E+001
  -8.9389    0.2919E+001
  -8.9189    0.3250E+001
  -8.8989    0.3524E+001
  -8.8789    0.3707E+001
  -8.8589    0.3774E+001
  -8.8388    0.3712E+001
  -8.8188    0.3526E+001
  -8.7988    0.3234E+001
  -8.7788    0.2863E+001
  -8.7588    0.2445E+001
  -8.7387    0.2016E+001
  -8.7187    0.1604E+001
  -8.6987    0.1232E+001
  -8.6787    0.9125E+000
  -8.6587    0.6524E+000
  -8.6386    0.4501E+000
  -8.6186    0.2997E+000
  -8.5986    0.1926E+000
  -8.5786    0.1194E+000
  -8.5586    0.7144E-001
  -8.5385    0.4125E-001
  -8.5185    0.2298E-001
  -8.4985    0.1236E-001
  -8.4785    0.6411E-002
  -8.4585    0.3210E-002
  -8.4384    0.1551E-002
  -8.4184    0.7232E-003
  -8.3984    0.3254E-003
  -8.3784    0.1413E-003
  -8.3584    0.5920E-004
  -8.3383    0.2394E-004
  -8.3183    0.9339E-005
  -8.2983    0.3517E-005
  -8.2783    0.1278E-005
  -8.2583    0.4480E-006
  -8.2382    0.1516E-006
  -8.2182    0.4950E-007
  -8.1982    0.1560E-007
  -8.1782    0.4742E-008
  -8.1582    0.1391E-008
  -8.1381    0.3940E-009
  -8.1181    0.1077E-009
  -8.0981    0.2850E-010
  -8.0781    0.7709E-011
  -8.0581    0.3819E-011
  -8.0380    0.8721E-011
  -8.0180    0.3260E-010
  -7.9980    0.1229E-009
  -7.9780    0.4480E-009
  -7.9580    0.1577E-008
  -7.9379    0.5354E-008
  -7.9179    0.1754E-007
  -7.8979    0.5548E-007
  -7.8779    0.1693E-006
  -7.8579    0.4986E-006
  -7.8378    0.1417E-005
  -7.8178    0.3886E-005
  -7.7978    0.1028E-004
  -7.7778    0.2626E-004
  -7.7578    0.6471E-004
  -7.7377    0.1539E-003
  -7.7177    0.3532E-003
  -7.6977    0.7821E-003
  -7.6777    0.1671E-002
  -7.6577    0.3447E-002
  -7.6376    0.6860E-002
  -7.6176    0.1317E-001
  -7.5976    0.2442E-001
  -7.5776    0.4367E-001
  -7.5576    0.7536E-001
  -7.5375    0.1255E+000
  -7.5175    0.2018E+000
  -7.4975    0.3130E+000
  -7.4775    0.4686E+000
  -7.4575    0.6771E+000
  -7.4374    0.9445E+000
  -7.4174    0.1272E+001
  -7.3974    0.1654E+001
  -7.3774    0.2078E+001
  -7.3574    0.2522E+001
  -7.3373    0.2962E+001
  -7.3173    0.3367E+001
  -7.2973    0.3712E+001
  -7.2773    0.3978E+001
  -7.2573    0.4155E+001
  -7.2372    0.4250E+001
  -7.2172    0.4277E+001
  -7.1972    0.4264E+001
  -7.1772    0.4236E+001
  -7.1572    0.4217E+001
  -7.1371    0.4224E+001
  -7.1171    0.4257E+001
  -7.0971    0.4308E+001
  -7.0771    0.4360E+001
  -7.0571    0.4391E+001
  -7.0370    0.4387E+001
  -7.0170    0.4340E+001
  -6.9970    0.4258E+001
  -6.9770    0.4161E+001
  -6.9570    0.4077E+001
  -6.9369    0.4040E+001
  -6.9169    0.4080E+001
  -6.8969    0.4218E+001
  -6.8769    0.4460E+001
  -6.8569    0.4795E+001
  -6.8368    0.5199E+001
  -6.8168    0.5635E+001
  -6.7968    0.6061E+001
  -6.7768    0.6437E+001
  -6.7568    0.6728E+001
  -6.7367    0.6909E+001
  -6.7167    0.6972E+001
  -6.6967    0.6922E+001
  -6.6767    0.6775E+001
  -6.6567    0.6559E+001
  -6.6366    0.6305E+001
  -6.6166    0.6041E+001
  -6.5966    0.5790E+001
  -6.5766    0.5564E+001
  -6.5566    0.5360E+001
  -6.5365    0.5167E+001
  -6.5165    0.4966E+001
  -6.4965    0.4734E+001
  -6.4765    0.4453E+001
  -6.4565    0.4113E+001
  -6.4364    0.3715E+001
  -6.4164    0.3270E+001
  -6.3964    0.2797E+001
  -6.3764    0.2322E+001
  -6.3564    0.1866E+001
  -6.3363    0.1452E+001
  -6.3163    0.1092E+001
  -6.2963    0.7945E+000
  -6.2763    0.5598E+000
  -6.2563    0.3838E+000
  -6.2362    0.2596E+000
  -6.2162    0.1797E+000
  -6.1962    0.1378E+000
  -6.1762    0.1298E+000
  -6.1562    0.1549E+000
  -6.1361    0.2156E+000
  -6.1161    0.3170E+000
  -6.0961    0.4659E+000
  -6.0761    0.6693E+000
  -6.0561    0.9319E+000
  -6.0360    0.1254E+001
  -6.0160    0.1629E+001
  -5.9960    0.2043E+001
  -5.9760    0.2472E+001
  -5.9560    0.2887E+001
  -5.9359    0.3253E+001
  -5.9159    0.3538E+001
  -5.8959    0.3713E+001
  -5.8759    0.3760E+001
  -5.8559    0.3675E+001
  -5.8358    0.3467E+001
  -5.8158    0.3157E+001
  -5.7958    0.2777E+001
  -5.7758    0.2362E+001
  -5.7558    0.1946E+001
  -5.7357    0.1563E+001
  -5.7157    0.1235E+001
  -5.6957    0.9827E+000
  -5.6757    0.8163E+000
  -5.6557    0.7422E+000
  -5.6356    0.7629E+000
  -5.6156    0.8774E+000
  -5.5956    0.1081E+001
  -5.5756    0.1366E+001
  -5.5556    0.1716E+001
  -5.5355    0.2113E+001
  -5.5155    0.2527E+001
  -5.4955    0.2927E+001
  -5.4755    0.3278E+001
  -5.4555    0.3548E+001
  -5.4354    0.3709E+001
  -5.4154    0.3747E+001
  -5.3954    0.3660E+001
  -5.3754    0.3461E+001
  -5.3554    0.3176E+001
  -5.3353    0.2839E+001
  -5.3153    0.2489E+001
  -5.2953    0.2167E+001
  -5.2753    0.1904E+001
  -5.2553    0.1729E+001
  -5.2352    0.1656E+001
  -5.2152    0.1690E+001
  -5.1952    0.1825E+001
  -5.1752    0.2045E+001
  -5.1552    0.2328E+001
  -5.1351    0.2648E+001
  -5.1151    0.2973E+001
  -5.0951    0.3279E+001
  -5.0751    0.3543E+001
  -5.0551    0.3752E+001
  -5.0350    0.3904E+001
  -5.0150    0.4003E+001
  -4.9950    0.4067E+001
  -4.9750    0.4115E+001
  -4.9550    0.4169E+001
  -4.9349    0.4245E+001
  -4.9149    0.4353E+001
  -4.8949    0.4492E+001
  -4.8749    0.4651E+001
  -4.8549    0.4811E+001
  -4.8348    0.4951E+001
  -4.8148    0.5051E+001
  -4.7948    0.5095E+001
  -4.7748    0.5076E+001
  -4.7548    0.4997E+001
  -4.7347    0.4866E+001
  -4.7147    0.4696E+001
  -4.6947    0.4504E+001
  -4.6747    0.4300E+001
  -4.6547    0.4096E+001
  -4.6346    0.3894E+001
  -4.6146    0.3694E+001
  -4.5946    0.3495E+001
  -4.5746    0.3291E+001
  -4.5546    0.3080E+001
  -4.5345    0.2862E+001
  -4.5145    0.2641E+001
  -4.4945    0.2423E+001
  -4.4745    0.2220E+001
  -4.4545    0.2044E+001
  -4.4344    0.1910E+001
  -4.4144    0.1829E+001
  -4.3944    0.1809E+001
  -4.3744    0.1853E+001
  -4.3544    0.1960E+001
  -4.3343    0.2119E+001
  -4.3143    0.2316E+001
  -4.2943    0.2533E+001
  -4.2743    0.2750E+001
  -4.2543    0.2945E+001
  -4.2342    0.3100E+001
  -4.2142    0.3197E+001
  -4.1942    0.3225E+001
  -4.1742    0.3179E+001
  -4.1542    0.3058E+001
  -4.1341    0.2869E+001
  -4.1141    0.2622E+001
  -4.0941    0.2333E+001
  -4.0741    0.2020E+001
  -4.0541    0.1700E+001
  -4.0340    0.1390E+001
  -4.0140    0.1103E+001
  -3.9940    0.8498E+000
  -3.9740    0.6347E+000
  -3.9540    0.4594E+000
  -3.9339    0.3222E+000
  -3.9139    0.2190E+000
  -3.8939    0.1444E+000
  -3.8739    0.9295E-001
  -3.8539    0.5944E-001
  -3.8338    0.3984E-001
  -3.8138    0.3147E-001
  -3.7938    0.3327E-001
  -3.7738    0.4597E-001
  -3.7538    0.7220E-001
  -3.7337    0.1166E+000
  -3.7137    0.1855E+000
  -3.6937    0.2870E+000
  -3.6737    0.4298E+000
  -3.6537    0.6224E+000
  -3.6336    0.8711E+000
  -3.6136    0.1179E+001
  -3.5936    0.1542E+001
  -3.5736    0.1953E+001
  -3.5536    0.2396E+001
  -3.5335    0.2851E+001
  -3.5135    0.3297E+001
  -3.4935    0.3715E+001
  -3.4735    0.4094E+001
  -3.4535    0.4435E+001
  -3.4334    0.4751E+001
  -3.4134    0.5067E+001
  -3.3934    0.5417E+001
  -3.3734    0.5836E+001
  -3.3534    0.6353E+001
  -3.3333    0.6982E+001
  -3.3133    0.7720E+001
  -3.2933    0.8543E+001
  -3.2733    0.9410E+001
  -3.2533    0.1027E+002
  -3.2332    0.1106E+002
  -3.2132    0.1174E+002
  -3.1932    0.1227E+002
  -3.1732    0.1261E+002
  -3.1532    0.1277E+002
  -3.1331    0.1275E+002
  -3.1131    0.1260E+002
  -3.0931    0.1236E+002
  -3.0731    0.1207E+002
  -3.0531    0.1178E+002
  -3.0330    0.1155E+002
  -3.0130    0.1141E+002
  -2.9930    0.1138E+002
  -2.9730    0.1143E+002
  -2.9530    0.1155E+002
  -2.9329    0.1170E+002
  -2.9129    0.1180E+002
  -2.8929    0.1181E+002
  -2.8729    0.1168E+002
  -2.8529    0.1138E+002
  -2.8328    0.1091E+002
  -2.8128    0.1030E+002
  -2.7928    0.9604E+001
  -2.7728    0.8880E+001
  -2.7528    0.8201E+001
  -2.7327    0.7632E+001
  -2.7127    0.7224E+001
  -2.6927    0.7004E+001
  -2.6727    0.6977E+001
  -2.6527    0.7120E+001
  -2.6326    0.7394E+001
  -2.6126    0.7744E+001
  -2.5926    0.8112E+001
  -2.5726    0.8444E+001
  -2.5526    0.8694E+001
  -2.5325    0.8830E+001
  -2.5125    0.8837E+001
  -2.4925    0.8712E+001
  -2.4725    0.8465E+001
  -2.4525    0.8116E+001
  -2.4324    0.7687E+001
  -2.4124    0.7208E+001
  -2.3924    0.6707E+001
  -2.3724    0.6214E+001
  -2.3524    0.5758E+001
  -2.3323    0.5367E+001
  -2.3123    0.5069E+001
  -2.2923    0.4887E+001
  -2.2723    0.4840E+001
  -2.2523    0.4946E+001
  -2.2322    0.5217E+001
  -2.2122    0.5661E+001
  -2.1922    0.6282E+001
  -2.1722    0.7081E+001
  -2.1522    0.8052E+001
  -2.1321    0.9180E+001
  -2.1121    0.1044E+002
  -2.0921    0.1180E+002
  -2.0721    0.1320E+002
  -2.0521    0.1457E+002
  -2.0320    0.1585E+002
  -2.0120    0.1693E+002
  -1.9920    0.1775E+002
  -1.9720    0.1824E+002
  -1.9520    0.1836E+002
  -1.9319    0.1812E+002
  -1.9119    0.1755E+002
  -1.8919    0.1675E+002
  -1.8719    0.1581E+002
  -1.8519    0.1486E+002
  -1.8318    0.1403E+002
  -1.8118    0.1344E+002
  -1.7918    0.1317E+002
  -1.7718    0.1327E+002
  -1.7518    0.1377E+002
  -1.7317    0.1464E+002
  -1.7117    0.1584E+002
  -1.6917    0.1728E+002
  -1.6717    0.1888E+002
  -1.6517    0.2053E+002
  -1.6316    0.2211E+002
  -1.6116    0.2353E+002
  -1.5916    0.2471E+002
  -1.5716    0.2558E+002
  -1.5516    0.2614E+002
  -1.5315    0.2639E+002
  -1.5115    0.2639E+002
  -1.4915    0.2621E+002
  -1.4715    0.2593E+002
  -1.4515    0.2561E+002
  -1.4314    0.2532E+002
  -1.4114    0.2508E+002
  -1.3914    0.2489E+002
  -1.3714    0.2473E+002
  -1.3514    0.2458E+002
  -1.3313    0.2441E+002
  -1.3113    0.2422E+002
  -1.2913    0.2403E+002
  -1.2713    0.2387E+002
  -1.2513    0.2380E+002
  -1.2312    0.2386E+002
  -1.2112    0.2410E+002
  -1.1912    0.2454E+002
  -1.1712    0.2517E+002
  -1.1512    0.2596E+002
  -1.1311    0.2685E+002
  -1.1111    0.2776E+002
  -1.0911    0.2862E+002
  -1.0711    0.2933E+002
  -1.0511    0.2981E+002
  -1.0310    0.2999E+002
  -1.0110    0.2983E+002
  -0.9910    0.2928E+002
  -0.9710    0.2837E+002
  -0.9510    0.2710E+002
  -0.9309    0.2552E+002
  -0.9109    0.2372E+002
  -0.8909    0.2177E+002
  -0.8709    0.1976E+002
  -0.8509    0.1777E+002
  -0.8308    0.1585E+002
  -0.8108    0.1405E+002
  -0.7908    0.1240E+002
  -0.7708    0.1090E+002
  -0.7508    0.9562E+001
  -0.7307    0.8388E+001
  -0.7107    0.7385E+001
  -0.6907    0.6570E+001
  -0.6707    0.5967E+001
  -0.6507    0.5604E+001
  -0.6306    0.5503E+001
  -0.6106    0.5681E+001
  -0.5906    0.6132E+001
  -0.5706    0.6831E+001
  -0.5506    0.7729E+001
  -0.5305    0.8756E+001
  -0.5105    0.9829E+001
  -0.4905    0.1086E+002
  -0.4705    0.1178E+002
  -0.4505    0.1251E+002
  -0.4304    0.1303E+002
  -0.4104    0.1333E+002
  -0.3904    0.1342E+002
  -0.3704    0.1333E+002
  -0.3504    0.1311E+002
  -0.3303    0.1282E+002
  -0.3103    0.1248E+002
  -0.2903    0.1214E+002
  -0.2703    0.1182E+002
  -0.2503    0.1154E+002
  -0.2302    0.1129E+002
  -0.2102    0.1107E+002
  -0.1902    0.1088E+002
  -0.1702    0.1069E+002
  -0.1502    0.1049E+002
  -0.1301    0.1024E+002
  -0.1101    0.9919E+001
  -0.0901    0.9503E+001
  -0.0701    0.8976E+001
  -0.0501    0.8336E+001
  -0.0300    0.7590E+001
  -0.0100    0.6762E+001
   0.0100    0.5884E+001
   0.0300    0.4995E+001
   0.0501    0.4135E+001
   0.0701    0.3339E+001
   0.0901    0.2637E+001
   0.1101    0.2050E+001
   0.1301    0.1589E+001
   0.1502    0.1258E+001
   0.1702    0.1054E+001
   0.1902    0.9699E+000
   0.2102    0.9968E+000
   0.2302    0.1122E+001
   0.2503    0.1332E+001
   0.2703    0.1610E+001
   0.2903    0.1934E+001
   0.3103    0.2282E+001
   0.3303    0.2627E+001
   0.3504    0.2942E+001
   0.3704    0.3202E+001
   0.3904    0.3382E+001
   0.4104    0.3468E+001
   0.4304    0.3452E+001
   0.4505    0.3333E+001
   0.4705    0.3123E+001
   0.4905    0.2839E+001
   0.5105    0.2504E+001
   0.5305    0.2141E+001
   0.5506    0.1775E+001
   0.5706    0.1427E+001
   0.5906    0.1112E+001
   0.6106    0.8391E+000
   0.6306    0.6135E+000
   0.6507    0.4344E+000
   0.6707    0.2978E+000
   0.6907    0.1976E+000
   0.7107    0.1269E+000
   0.7307    0.7884E-001
   0.7508    0.4738E-001
   0.7708    0.2754E-001
   0.7908    0.1548E-001
   0.8108    0.8410E-002
   0.8308    0.4418E-002
   0.8509    0.2243E-002
   0.8709    0.1100E-002
   0.8909    0.5217E-003
   0.9109    0.2389E-003
   0.9309    0.1057E-003
   0.9510    0.4520E-004
   0.9710    0.1867E-004
   0.9910    0.7454E-005
   1.0110    0.2897E-005
   1.0310    0.1155E-005
   1.0511    0.6430E-006
   1.0711    0.8685E-006
   1.0911    0.2057E-005
   1.1111    0.5329E-005
   1.1311    0.1357E-004
   1.1512    0.3342E-004
   1.1712    0.7956E-004
   1.1912    0.1830E-003
   1.2112    0.4065E-003
   1.2312    0.8727E-003
   1.2513    0.1810E-002
   1.2713    0.3629E-002
   1.2913    0.7030E-002
   1.3113    0.1316E-001
   1.3313    0.2382E-001
   1.3514    0.4169E-001
   1.3714    0.7052E-001
   1.3914    0.1154E+000
   1.4114    0.1825E+000
   1.4314    0.2793E+000
   1.4515    0.4134E+000
   1.4715    0.5921E+000
   1.4915    0.8204E+000
   1.5115    0.1100E+001
   1.5315    0.1427E+001
   1.5516    0.1793E+001
   1.5716    0.2180E+001
   1.5916    0.2566E+001
   1.6116    0.2924E+001
   1.6316    0.3226E+001
   1.6517    0.3446E+001
   1.6717    0.3565E+001
   1.6917    0.3571E+001
   1.7117    0.3463E+001
   1.7317    0.3253E+001
   1.7518    0.2958E+001
   1.7718    0.2604E+001
   1.7918    0.2220E+001
   1.8118    0.1832E+001
   1.8318    0.1463E+001
   1.8519    0.1131E+001
   1.8719    0.8467E+000
   1.8919    0.6136E+000
   1.9119    0.4312E+000
   1.9319    0.2948E+000
   1.9520    0.1985E+000
   1.9720    0.1358E+000
   1.9920    0.1015E+000
   2.0120    0.9260E-001
   2.0320    0.1086E+000
   2.0521    0.1518E+000
   2.0721    0.2275E+000
   2.0921    0.3428E+000
   2.1121    0.5057E+000
   2.1321    0.7235E+000
   2.1522    0.1001E+001
   2.1722    0.1336E+001
   2.1922    0.1722E+001
   2.2122    0.2141E+001
   2.2322    0.2570E+001
   2.2523    0.2977E+001
   2.2723    0.3327E+001
   2.2923    0.3589E+001
   2.3123    0.3735E+001
   2.3323    0.3752E+001
   2.3524    0.3636E+001
   2.3724    0.3401E+001
   2.3924    0.3070E+001
   2.4124    0.2674E+001
   2.4324    0.2248E+001
   2.4525    0.1823E+001
   2.4725    0.1427E+001
   2.4925    0.1078E+001
   2.5125    0.7866E+000
   2.5325    0.5547E+000
   2.5526    0.3793E+000
   2.5726    0.2538E+000
   2.5926    0.1703E+000
   2.6126    0.1217E+000
   2.6326    0.1024E+000
   2.6527    0.1096E+000
   2.6727    0.1434E+000
   2.6927    0.2065E+000
   2.7127    0.3033E+000
   2.7327    0.4397E+000
   2.7528    0.6213E+000
   2.7728    0.8517E+000
   2.7928    0.1131E+001
   2.8128    0.1456E+001
   2.8328    0.1815E+001
   2.8529    0.2192E+001
   2.8729    0.2564E+001
   2.8929    0.2907E+001
   2.9129    0.3195E+001
   2.9329    0.3403E+001
   2.9530    0.3513E+001
   2.9730    0.3515E+001
   2.9930    0.3410E+001
   3.0130    0.3206E+001
   3.0330    0.2922E+001
   3.0531    0.2581E+001
   3.0731    0.2209E+001
   3.0931    0.1832E+001
   3.1131    0.1472E+001
   3.1331    0.1146E+001
   3.1532    0.8642E+000
   3.1732    0.6310E+000
   3.1932    0.4464E+000
   3.2132    0.3063E+000
   3.2332    0.2046E+000
   3.2533    0.1346E+000
   3.2733    0.9030E-001
   3.2933    0.6690E-001
   3.3133    0.6171E-001
   3.3333    0.7438E-001
   3.3534    0.1070E+000
   3.3734    0.1640E+000
   3.3934    0.2520E+000
   3.4134    0.3787E+000
   3.4334    0.5521E+000
   3.4535    0.7787E+000
   3.4735    0.1062E+001
   3.4935    0.1398E+001
   3.5135    0.1780E+001
   3.5335    0.2189E+001
   3.5536    0.2601E+001
   3.5736    0.2986E+001
   3.5936    0.3312E+001
   3.6136    0.3550E+001
   3.6336    0.3677E+001
   3.6537    0.3680E+001
   3.6737    0.3558E+001
   3.6937    0.3324E+001
   3.7137    0.3001E+001
   3.7337    0.2617E+001
   3.7538    0.2205E+001
   3.7738    0.1796E+001
   3.7938    0.1413E+001
   3.8138    0.1074E+001
   3.8338    0.7883E+000
   3.8539    0.5592E+000
   3.8739    0.3833E+000
   3.8939    0.2538E+000
   3.9139    0.1623E+000
   3.9339    0.1003E+000
   3.9540    0.5985E-001
   3.9740    0.3451E-001
   3.9940    0.1922E-001
   4.0140    0.1034E-001
   4.0340    0.5370E-002
   4.0541    0.2695E-002
   4.0741    0.1306E-002
   4.0941    0.6113E-003
   4.1141    0.2763E-003
   4.1341    0.1206E-003
   4.1542    0.5086E-004
   4.1742    0.2071E-004
   4.1942    0.8141E-005
   4.2142    0.3090E-005
   4.2342    0.1133E-005
   4.2543    0.4010E-006
   4.2743    0.1370E-006
   4.2943    0.4522E-007
   4.3143    0.1441E-007
   4.3343    0.4433E-008
   4.3544    0.1316E-008
   4.3744    0.3775E-009
   4.3944    0.1045E-009
   4.4144    0.2793E-010
   4.4344    0.7206E-011
   4.4545    0.1795E-011
   4.4745    0.4316E-012
   4.4945    0.1002E-012
   4.5145    0.2245E-013
   4.5345    0.4856E-014
   4.5546    0.1014E-014
   4.5746    0.2044E-015
   4.5946    0.3977E-016
   4.6146    0.7468E-017
   4.6346    0.1354E-017
   4.6547    0.2369E-018
   4.6747    0.4002E-019
   4.6947    0.6524E-020
   4.7147    0.1027E-020
   4.7347    0.1559E-021
   4.7548    0.2286E-022
   4.7748    0.3235E-023
   4.7948    0.4419E-024
   4.8148    0.5825E-025
   4.8348    0.7411E-026
   4.8549    0.9101E-027
   4.8749    0.1079E-027
   4.8949    0.1234E-028
   4.9149    0.1363E-029
   4.9349    0.1452E-030
   4.9550    0.1493E-031
   4.9750    0.1482E-032
   4.9950    0.1421E-033
   5.0150    0.1444E-034
   5.0350    0.1600E-034
   5.0551    0.1623E-033
   5.0751    0.1712E-032
   5.0951    0.1744E-031
   5.1151    0.1714E-030
   5.1351    0.1626E-029
   5.1552    0.1488E-028
   5.1752    0.1315E-027
   5.1952    0.1121E-026
   5.2152    0.9217E-026
   5.2352    0.7316E-025
   5.2553    0.5604E-024
   5.2753    0.4142E-023
   5.2953    0.2955E-022
   5.3153    0.2034E-021
   5.3353    0.1351E-020
   5.3554    0.8661E-020
   5.3754    0.5357E-019
   5.3954    0.3198E-018
   5.4154    0.1842E-017
   5.4354    0.1024E-016
   5.4555    0.5493E-016
   5.4755    0.2843E-015
   5.4955    0.1420E-014
   5.5155    0.6846E-014
   5.5355    0.3185E-013
   5.5556    0.1430E-012
   5.5756    0.6193E-012
   5.5956    0.2589E-011
   5.6156    0.1044E-010
   5.6356    0.4065E-010
   5.6557    0.1527E-009
   5.6757    0.5536E-009
   5.6957    0.1937E-008
   5.7157    0.6538E-008
   5.7357    0.2130E-007
   5.7558    0.6695E-007
   5.7758    0.2031E-006
   5.7958    0.5945E-006
   5.8158    0.1680E-005
   5.8358    0.4579E-005
   5.8559    0.1205E-004
   5.8759    0.3058E-004
   5.8959    0.7491E-004
   5.9159    0.1771E-003
   5.9359    0.4040E-003
   5.9560    0.8894E-003
   5.9760    0.1889E-002
   5.9960    0.3873E-002
   6.0160    0.7663E-002
   6.0360    0.1463E-001
   6.0561    0.2695E-001
   6.0761    0.4791E-001
   6.0961    0.8220E-001
   6.1161    0.1361E+000
   6.1361    0.2174E+000
   6.1562    0.3352E+000
   6.1762    0.4986E+000
   6.1962    0.7158E+000
   6.2162    0.9917E+000
   6.2362    0.1326E+001
   6.2563    0.1711E+001
   6.2763    0.2130E+001
   6.2963    0.2559E+001
   6.3163    0.2966E+001
   6.3363    0.3319E+001
   6.3564    0.3583E+001
   6.3764    0.3733E+001
   6.3964    0.3753E+001
   6.4164    0.3641E+001
   6.4364    0.3409E+001
   6.4565    0.3080E+001
   6.4765    0.2685E+001
   6.4965    0.2259E+001
   6.5165    0.1834E+001
   6.5365    0.1437E+001
   6.5566    0.1087E+001
   6.5766    0.7928E+000
   6.5966    0.5582E+000
   6.6166    0.3792E+000
   6.6366    0.2486E+000
   6.6567    0.1573E+000
   6.6767    0.9605E-001
   6.6967    0.5659E-001
   6.7167    0.3218E-001
   6.7367    0.1765E-001
   6.7568    0.9348E-002
   6.7768    0.4776E-002
   6.7968    0.2355E-002
   6.8168    0.1120E-002
   6.8368    0.5145E-003
   6.8569    0.2279E-003
   6.8769    0.9747E-004
   6.8969    0.4022E-004
   6.9169    0.1601E-004
   6.9369    0.6153E-005
   6.9570    0.2281E-005
   6.9770    0.8163E-006
   6.9970    0.2818E-006
   7.0170    0.9391E-007
   7.0370    0.3020E-007
   7.0571    0.9370E-008
   7.0771    0.2806E-008
   7.0971    0.8107E-009
   7.1171    0.2260E-009
   7.1371    0.6082E-010
   7.1572    0.1579E-010
   7.1772    0.3957E-011
   7.1972    0.9569E-012
   7.2172    0.2233E-012
   7.2372    0.5028E-013
   7.2573    0.1093E-013
   7.2773    0.2291E-014
   7.2973    0.4636E-015
   7.3173    0.9052E-016
   7.3373    0.1706E-016
   7.3574    0.3102E-017
   7.3774    0.5443E-018
   7.3974    0.9216E-019
   7.4174    0.1506E-019
   7.4374    0.2375E-020
   7.4575    0.3614E-021
   7.4775    0.5307E-022
   7.4975    0.7520E-023
   7.5175    0.1028E-023
   7.5375    0.1357E-024
   7.5576    0.1728E-025
   7.5776    0.2124E-026
   7.5976    0.2518E-027
   7.6176    0.2882E-028
   7.6376    0.3182E-029
   7.6577    0.3391E-030
   7.6777    0.3487E-031
   7.6977    0.3461E-032
   7.7177    0.3314E-033
   7.7377    0.3062E-034
   7.7578    0.2731E-035
   7.7778    0.2350E-036
   7.7978    0.1952E-037
   7.8178    0.1564E-038
   7.8378    0.1210E-039
   7.8579    0.9027E-041
   7.8779    0.6501E-042
   7.8979    0.4518E-043
   7.9179    0.3030E-044
   7.9379    0.1961E-045
   7.9580    0.1224E-046
   7.9780    0.7379E-048
   7.9980    0.4291E-049
   8.0180    0.2408E-050
   8.0380    0.1304E-051
   8.0581    0.6816E-053
   8.0781    0.3438E-054
   8.0981    0.1673E-055
   8.1181    0.7857E-057
   8.1381    0.3561E-058
   8.1582    0.1557E-059
   8.1782    0.6572E-061
   8.1982    0.2677E-062
   8.2182    0.1052E-063
   8.2382    0.3990E-065
   8.2583    0.1460E-066
   8.2783    0.5157E-068
   8.2983    0.1757E-069
   8.3183    0.5780E-071
   8.3383    0.1834E-072
   8.3584    0.5618E-074
   8.3784    0.1661E-075
   8.3984    0.4736E-077
   8.4184    0.1303E-078
   8.4384    0.3462E-080
   8.4585    0.8873E-082
   8.4785    0.2194E-083
   8.4985    0.5238E-085
   8.5185    0.1206E-086
   8.5385    0.2681E-088
   8.5586    0.5750E-090
   8.5786    0.1190E-091
   8.5986    0.2377E-093
   8.6186    0.4582E-095
   8.6386    0.8522E-097
   8.6587    0.1529E-098
   8.6787    0.2649E-100
   8.6987    0.4428E-102
   8.7187    0.7142E-104
   8.7387    0.1112E-105
   8.7588    0.1670E-107
   8.7788    0.2420E-109
   8.7988    0.3385E-111
   8.8188    0.4569E-113
   8.8388    0.5951E-115
   8.8589    0.7479E-117
   8.8789    0.9072E-119
   8.8989    0.1062E-120
   8.9189    0.1199E-122
   8.9389    0.1307E-124
   8.9590    0.1375E-126
   8.9790    0.1396E-128
   8.9990    0.1367E-130
   9.0190    0.1292E-132
   9.0390    0.1179E-134
   9.0591    0.1038E-136
   9.0791    0.8813E-139
   9.0991    0.7224E-141
   9.1191    0.5714E-143
   9.1391    0.4362E-145
   9.1592    0.3213E-147
   9.1792    0.2284E-149
   9.1992    0.1567E-151
   9.2192    0.1037E-153
   9.2392    0.6624E-156
   9.2593    0.4083E-158
   9.2793    0.2429E-160
   9.2993    0.1394E-162
   9.3193    0.7723E-165
   9.3393    0.4128E-167
   9.3594    0.2129E-169
   9.3794    0.1060E-171
   9.3994    0.5092E-174
   9.4194    0.2360E-176
   9.4394    0.1056E-178
   9.4595    0.4558E-181
   9.4795    0.1899E-183
   9.4995    0.7632E-186
   9.5195    0.2961E-188
   9.5395    0.1108E-190
   9.5596    0.4004E-193
   9.5796    0.1396E-195
   9.5996    0.4695E-198
   9.6196    0.1524E-200
   9.6396    0.4775E-203
   9.6597    0.1443E-205
   9.6797    0.4211E-208
   9.6997    0.1185E-210
   9.7197    0.3220E-213
   9.7397    0.8442E-216
   9.7598    0.2136E-218
   9.7798    0.5213E-221
   9.7998    0.1228E-223
   9.8198    0.2792E-226
   9.8398    0.6125E-229
   9.8599    0.1297E-231
   9.8799    0.2649E-234
   9.8999    0.5222E-237
   9.9199    0.9935E-240
   9.9399    0.1824E-242
   9.9600    0.3231E-245
   9.9800    0.5524E-248
  10.0000    0.9113E-251
