 # E (eV)   ldos(E)
 -20.0000    0.0000E+000
 -19.9791    0.0000E+000
 -19.9583    0.0000E+000
 -19.9374    0.0000E+000
 -19.9166    0.0000E+000
 -19.8957    0.0000E+000
 -19.8749    0.0000E+000
 -19.8540    0.0000E+000
 -19.8332    0.0000E+000
 -19.8123    0.0000E+000
 -19.7915    0.0000E+000
 -19.7706    0.0000E+000
 -19.7498    0.0000E+000
 -19.7289    0.0000E+000
 -19.7081    0.0000E+000
 -19.6872    0.0000E+000
 -19.6664    0.0000E+000
 -19.6455    0.0000E+000
 -19.6247    0.0000E+000
 -19.6038    0.0000E+000
 -19.5830    0.0000E+000
 -19.5621    0.0000E+000
 -19.5413    0.0000E+000
 -19.5204    0.0000E+000
 -19.4996    0.0000E+000
 -19.4787    0.0000E+000
 -19.4579    0.0000E+000
 -19.4370    0.0000E+000
 -19.4162    0.0000E+000
 -19.3953    0.0000E+000
 -19.3745    0.0000E+000
 -19.3536    0.0000E+000
 -19.3328    0.0000E+000
 -19.3119    0.0000E+000
 -19.2911    0.0000E+000
 -19.2702    0.0000E+000
 -19.2494    0.0000E+000
 -19.2285    0.0000E+000
 -19.2077    0.0000E+000
 -19.1868    0.0000E+000
 -19.1660    0.0000E+000
 -19.1451    0.0000E+000
 -19.1243    0.0000E+000
 -19.1034    0.0000E+000
 -19.0826    0.0000E+000
 -19.0617    0.0000E+000
 -19.0409    0.0000E+000
 -19.0200    0.0000E+000
 -18.9992    0.0000E+000
 -18.9783    0.0000E+000
 -18.9575    0.0000E+000
 -18.9366    0.0000E+000
 -18.9158    0.0000E+000
 -18.8949    0.0000E+000
 -18.8741    0.0000E+000
 -18.8532    0.0000E+000
 -18.8324    0.0000E+000
 -18.8115    0.0000E+000
 -18.7907    0.0000E+000
 -18.7698    0.0000E+000
 -18.7490    0.0000E+000
 -18.7281    0.0000E+000
 -18.7073    0.0000E+000
 -18.6864    0.0000E+000
 -18.6656    0.0000E+000
 -18.6447    0.0000E+000
 -18.6239    0.0000E+000
 -18.6030    0.0000E+000
 -18.5822    0.0000E+000
 -18.5613    0.0000E+000
 -18.5405    0.0000E+000
 -18.5196    0.0000E+000
 -18.4987    0.0000E+000
 -18.4779    0.0000E+000
 -18.4570    0.0000E+000
 -18.4362    0.0000E+000
 -18.4153    0.0000E+000
 -18.3945    0.0000E+000
 -18.3736    0.0000E+000
 -18.3528    0.0000E+000
 -18.3319    0.0000E+000
 -18.3111    0.0000E+000
 -18.2902    0.0000E+000
 -18.2694    0.0000E+000
 -18.2485    0.0000E+000
 -18.2277    0.0000E+000
 -18.2068    0.0000E+000
 -18.1860    0.0000E+000
 -18.1651    0.0000E+000
 -18.1443    0.0000E+000
 -18.1234    0.0000E+000
 -18.1026    0.0000E+000
 -18.0817    0.0000E+000
 -18.0609    0.0000E+000
 -18.0400    0.0000E+000
 -18.0192    0.0000E+000
 -17.9983    0.0000E+000
 -17.9775    0.0000E+000
 -17.9566    0.0000E+000
 -17.9358    0.0000E+000
 -17.9149    0.0000E+000
 -17.8941    0.0000E+000
 -17.8732    0.0000E+000
 -17.8524    0.0000E+000
 -17.8315    0.0000E+000
 -17.8107    0.0000E+000
 -17.7898    0.0000E+000
 -17.7690    0.0000E+000
 -17.7481    0.0000E+000
 -17.7273    0.0000E+000
 -17.7064    0.0000E+000
 -17.6856    0.0000E+000
 -17.6647    0.0000E+000
 -17.6439    0.0000E+000
 -17.6230    0.0000E+000
 -17.6022    0.0000E+000
 -17.5813    0.0000E+000
 -17.5605    0.0000E+000
 -17.5396    0.0000E+000
 -17.5188    0.0000E+000
 -17.4979    0.0000E+000
 -17.4771    0.0000E+000
 -17.4562    0.0000E+000
 -17.4354    0.0000E+000
 -17.4145    0.0000E+000
 -17.3937    0.0000E+000
 -17.3728    0.0000E+000
 -17.3520    0.0000E+000
 -17.3311    0.0000E+000
 -17.3103    0.0000E+000
 -17.2894    0.0000E+000
 -17.2686    0.0000E+000
 -17.2477    0.0000E+000
 -17.2269    0.0000E+000
 -17.2060    0.0000E+000
 -17.1852    0.0000E+000
 -17.1643    0.0000E+000
 -17.1435    0.0000E+000
 -17.1226    0.0000E+000
 -17.1018    0.0000E+000
 -17.0809    0.0000E+000
 -17.0601    0.0000E+000
 -17.0392    0.0000E+000
 -17.0183    0.0000E+000
 -16.9975    0.0000E+000
 -16.9766    0.0000E+000
 -16.9558    0.0000E+000
 -16.9349    0.0000E+000
 -16.9141    0.0000E+000
 -16.8932    0.0000E+000
 -16.8724    0.0000E+000
 -16.8515    0.0000E+000
 -16.8307    0.0000E+000
 -16.8098    0.0000E+000
 -16.7890    0.0000E+000
 -16.7681    0.0000E+000
 -16.7473    0.0000E+000
 -16.7264    0.0000E+000
 -16.7056    0.0000E+000
 -16.6847    0.0000E+000
 -16.6639    0.0000E+000
 -16.6430    0.0000E+000
 -16.6222    0.0000E+000
 -16.6013    0.0000E+000
 -16.5805    0.0000E+000
 -16.5596    0.0000E+000
 -16.5388    0.0000E+000
 -16.5179    0.0000E+000
 -16.4971    0.0000E+000
 -16.4762    0.0000E+000
 -16.4554    0.0000E+000
 -16.4345    0.0000E+000
 -16.4137    0.0000E+000
 -16.3928    0.0000E+000
 -16.3720    0.0000E+000
 -16.3511    0.0000E+000
 -16.3303    0.0000E+000
 -16.3094    0.0000E+000
 -16.2886    0.0000E+000
 -16.2677    0.0000E+000
 -16.2469    0.0000E+000
 -16.2260    0.0000E+000
 -16.2052    0.0000E+000
 -16.1843    0.0000E+000
 -16.1635    0.0000E+000
 -16.1426    0.0000E+000
 -16.1218    0.0000E+000
 -16.1009    0.0000E+000
 -16.0801    0.0000E+000
 -16.0592    0.0000E+000
 -16.0384    0.0000E+000
 -16.0175    0.0000E+000
 -15.9967    0.0000E+000
 -15.9758    0.0000E+000
 -15.9550    0.0000E+000
 -15.9341    0.0000E+000
 -15.9133    0.0000E+000
 -15.8924    0.0000E+000
 -15.8716    0.0000E+000
 -15.8507    0.0000E+000
 -15.8299    0.0000E+000
 -15.8090    0.0000E+000
 -15.7882    0.0000E+000
 -15.7673    0.0000E+000
 -15.7465    0.0000E+000
 -15.7256    0.0000E+000
 -15.7048    0.0000E+000
 -15.6839    0.0000E+000
 -15.6631    0.0000E+000
 -15.6422    0.0000E+000
 -15.6214    0.0000E+000
 -15.6005    0.0000E+000
 -15.5796    0.0000E+000
 -15.5588    0.0000E+000
 -15.5379    0.0000E+000
 -15.5171    0.0000E+000
 -15.4962    0.0000E+000
 -15.4754    0.0000E+000
 -15.4545    0.0000E+000
 -15.4337    0.0000E+000
 -15.4128    0.0000E+000
 -15.3920    0.0000E+000
 -15.3711    0.0000E+000
 -15.3503    0.0000E+000
 -15.3294    0.0000E+000
 -15.3086    0.0000E+000
 -15.2877    0.0000E+000
 -15.2669    0.0000E+000
 -15.2460    0.0000E+000
 -15.2252    0.0000E+000
 -15.2043    0.0000E+000
 -15.1835    0.0000E+000
 -15.1626    0.0000E+000
 -15.1418    0.0000E+000
 -15.1209    0.0000E+000
 -15.1001    0.0000E+000
 -15.0792    0.0000E+000
 -15.0584    0.0000E+000
 -15.0375    0.0000E+000
 -15.0167    0.0000E+000
 -14.9958    0.0000E+000
 -14.9750    0.0000E+000
 -14.9541    0.0000E+000
 -14.9333    0.0000E+000
 -14.9124    0.0000E+000
 -14.8916    0.0000E+000
 -14.8707    0.0000E+000
 -14.8499    0.0000E+000
 -14.8290    0.0000E+000
 -14.8082    0.0000E+000
 -14.7873    0.0000E+000
 -14.7665    0.0000E+000
 -14.7456    0.0000E+000
 -14.7248    0.0000E+000
 -14.7039    0.0000E+000
 -14.6831    0.0000E+000
 -14.6622    0.0000E+000
 -14.6414    0.0000E+000
 -14.6205    0.0000E+000
 -14.5997    0.0000E+000
 -14.5788    0.0000E+000
 -14.5580    0.0000E+000
 -14.5371    0.0000E+000
 -14.5163    0.0000E+000
 -14.4954    0.0000E+000
 -14.4746    0.0000E+000
 -14.4537    0.0000E+000
 -14.4329    0.0000E+000
 -14.4120    0.0000E+000
 -14.3912    0.0000E+000
 -14.3703    0.0000E+000
 -14.3495    0.0000E+000
 -14.3286    0.0000E+000
 -14.3078    0.0000E+000
 -14.2869    0.0000E+000
 -14.2661    0.0000E+000
 -14.2452    0.0000E+000
 -14.2244    0.0000E+000
 -14.2035    0.0000E+000
 -14.1827    0.0000E+000
 -14.1618    0.0000E+000
 -14.1410    0.0000E+000
 -14.1201    0.0000E+000
 -14.0992    0.0000E+000
 -14.0784    0.0000E+000
 -14.0575    0.0000E+000
 -14.0367    0.0000E+000
 -14.0158    0.0000E+000
 -13.9950    0.0000E+000
 -13.9741    0.0000E+000
 -13.9533    0.0000E+000
 -13.9324    0.0000E+000
 -13.9116    0.0000E+000
 -13.8907    0.0000E+000
 -13.8699    0.0000E+000
 -13.8490    0.0000E+000
 -13.8282    0.0000E+000
 -13.8073    0.0000E+000
 -13.7865    0.0000E+000
 -13.7656    0.0000E+000
 -13.7448    0.0000E+000
 -13.7239    0.0000E+000
 -13.7031    0.0000E+000
 -13.6822    0.0000E+000
 -13.6614    0.0000E+000
 -13.6405    0.0000E+000
 -13.6197    0.0000E+000
 -13.5988    0.0000E+000
 -13.5780    0.0000E+000
 -13.5571    0.0000E+000
 -13.5363    0.0000E+000
 -13.5154    0.0000E+000
 -13.4946    0.0000E+000
 -13.4737    0.0000E+000
 -13.4529    0.0000E+000
 -13.4320    0.0000E+000
 -13.4112    0.0000E+000
 -13.3903    0.0000E+000
 -13.3695    0.0000E+000
 -13.3486    0.0000E+000
 -13.3278    0.0000E+000
 -13.3069    0.0000E+000
 -13.2861    0.0000E+000
 -13.2652    0.0000E+000
 -13.2444    0.0000E+000
 -13.2235    0.0000E+000
 -13.2027    0.0000E+000
 -13.1818    0.0000E+000
 -13.1610    0.0000E+000
 -13.1401    0.0000E+000
 -13.1193    0.0000E+000
 -13.0984    0.0000E+000
 -13.0776    0.0000E+000
 -13.0567    0.0000E+000
 -13.0359    0.0000E+000
 -13.0150    0.0000E+000
 -12.9942    0.0000E+000
 -12.9733    0.0000E+000
 -12.9525    0.0000E+000
 -12.9316    0.0000E+000
 -12.9108    0.0000E+000
 -12.8899    0.0000E+000
 -12.8691    0.0000E+000
 -12.8482    0.0000E+000
 -12.8274    0.0000E+000
 -12.8065    0.0000E+000
 -12.7857    0.0000E+000
 -12.7648    0.0000E+000
 -12.7440    0.0000E+000
 -12.7231    0.0000E+000
 -12.7023    0.0000E+000
 -12.6814    0.0000E+000
 -12.6606    0.0000E+000
 -12.6397    0.0000E+000
 -12.6188    0.0000E+000
 -12.5980    0.0000E+000
 -12.5771    0.0000E+000
 -12.5563    0.0000E+000
 -12.5354    0.0000E+000
 -12.5146    0.0000E+000
 -12.4937    0.0000E+000
 -12.4729    0.0000E+000
 -12.4520    0.0000E+000
 -12.4312    0.0000E+000
 -12.4103    0.0000E+000
 -12.3895    0.0000E+000
 -12.3686    0.0000E+000
 -12.3478    0.0000E+000
 -12.3269    0.0000E+000
 -12.3061    0.0000E+000
 -12.2852    0.0000E+000
 -12.2644    0.0000E+000
 -12.2435    0.0000E+000
 -12.2227    0.0000E+000
 -12.2018    0.0000E+000
 -12.1810    0.0000E+000
 -12.1601    0.0000E+000
 -12.1393    0.0000E+000
 -12.1184    0.0000E+000
 -12.0976    0.0000E+000
 -12.0767    0.0000E+000
 -12.0559    0.0000E+000
 -12.0350    0.0000E+000
 -12.0142    0.0000E+000
 -11.9933    0.0000E+000
 -11.9725    0.0000E+000
 -11.9516    0.0000E+000
 -11.9308    0.0000E+000
 -11.9099    0.0000E+000
 -11.8891    0.0000E+000
 -11.8682    0.0000E+000
 -11.8474    0.0000E+000
 -11.8265    0.0000E+000
 -11.8057    0.0000E+000
 -11.7848    0.0000E+000
 -11.7640    0.0000E+000
 -11.7431    0.0000E+000
 -11.7223    0.0000E+000
 -11.7014    0.0000E+000
 -11.6806    0.0000E+000
 -11.6597    0.0000E+000
 -11.6389    0.0000E+000
 -11.6180    0.0000E+000
 -11.5972    0.0000E+000
 -11.5763    0.0000E+000
 -11.5555    0.0000E+000
 -11.5346    0.0000E+000
 -11.5138    0.0000E+000
 -11.4929    0.0000E+000
 -11.4721    0.0000E+000
 -11.4512    0.0000E+000
 -11.4304    0.0000E+000
 -11.4095    0.0000E+000
 -11.3887    0.0000E+000
 -11.3678    0.0000E+000
 -11.3470    0.0000E+000
 -11.3261    0.0000E+000
 -11.3053    0.0000E+000
 -11.2844    0.0000E+000
 -11.2636    0.0000E+000
 -11.2427    0.0000E+000
 -11.2219    0.0000E+000
 -11.2010    0.0000E+000
 -11.1802    0.0000E+000
 -11.1593    0.0000E+000
 -11.1384    0.0000E+000
 -11.1176    0.0000E+000
 -11.0967    0.0000E+000
 -11.0759    0.0000E+000
 -11.0550    0.0000E+000
 -11.0342    0.0000E+000
 -11.0133    0.0000E+000
 -10.9925    0.0000E+000
 -10.9716    0.0000E+000
 -10.9508    0.0000E+000
 -10.9299    0.0000E+000
 -10.9091    0.0000E+000
 -10.8882    0.0000E+000
 -10.8674    0.0000E+000
 -10.8465    0.0000E+000
 -10.8257    0.0000E+000
 -10.8048    0.0000E+000
 -10.7840    0.0000E+000
 -10.7631    0.0000E+000
 -10.7423    0.0000E+000
 -10.7214    0.0000E+000
 -10.7006    0.0000E+000
 -10.6797    0.0000E+000
 -10.6589    0.0000E+000
 -10.6380    0.0000E+000
 -10.6172    0.0000E+000
 -10.5963    0.0000E+000
 -10.5755    0.0000E+000
 -10.5546    0.0000E+000
 -10.5338    0.0000E+000
 -10.5129    0.0000E+000
 -10.4921    0.0000E+000
 -10.4712    0.0000E+000
 -10.4504    0.0000E+000
 -10.4295    0.0000E+000
 -10.4087    0.0000E+000
 -10.3878    0.0000E+000
 -10.3670    0.0000E+000
 -10.3461    0.0000E+000
 -10.3253    0.0000E+000
 -10.3044    0.0000E+000
 -10.2836    0.0000E+000
 -10.2627    0.0000E+000
 -10.2419    0.0000E+000
 -10.2210    0.0000E+000
 -10.2002    0.0000E+000
 -10.1793    0.0000E+000
 -10.1585    0.0000E+000
 -10.1376    0.0000E+000
 -10.1168    0.0000E+000
 -10.0959    0.0000E+000
 -10.0751    0.0000E+000
 -10.0542    0.0000E+000
 -10.0334    0.0000E+000
 -10.0125    0.0000E+000
  -9.9917    0.0000E+000
  -9.9708    0.0000E+000
  -9.9500    0.0000E+000
  -9.9291    0.0000E+000
  -9.9083    0.0000E+000
  -9.8874    0.0000E+000
  -9.8666    0.0000E+000
  -9.8457    0.0000E+000
  -9.8249    0.0000E+000
  -9.8040    0.0000E+000
  -9.7832    0.0000E+000
  -9.7623    0.0000E+000
  -9.7415    0.0000E+000
  -9.7206    0.0000E+000
  -9.6997    0.0000E+000
  -9.6789    0.0000E+000
  -9.6580    0.0000E+000
  -9.6372    0.0000E+000
  -9.6163    0.0000E+000
  -9.5955    0.0000E+000
  -9.5746    0.0000E+000
  -9.5538    0.0000E+000
  -9.5329    0.0000E+000
  -9.5121    0.0000E+000
  -9.4912    0.0000E+000
  -9.4704    0.0000E+000
  -9.4495    0.0000E+000
  -9.4287    0.0000E+000
  -9.4078    0.0000E+000
  -9.3870    0.0000E+000
  -9.3661    0.0000E+000
  -9.3453    0.0000E+000
  -9.3244    0.0000E+000
  -9.3036    0.0000E+000
  -9.2827    0.0000E+000
  -9.2619    0.0000E+000
  -9.2410    0.0000E+000
  -9.2202    0.0000E+000
  -9.1993    0.0000E+000
  -9.1785    0.0000E+000
  -9.1576    0.0000E+000
  -9.1368    0.0000E+000
  -9.1159    0.0000E+000
  -9.0951    0.0000E+000
  -9.0742    0.0000E+000
  -9.0534    0.0000E+000
  -9.0325    0.0000E+000
  -9.0117    0.0000E+000
  -8.9908    0.0000E+000
  -8.9700    0.0000E+000
  -8.9491    0.0000E+000
  -8.9283    0.0000E+000
  -8.9074    0.0000E+000
  -8.8866    0.0000E+000
  -8.8657    0.0000E+000
  -8.8449    0.0000E+000
  -8.8240    0.0000E+000
  -8.8032    0.0000E+000
  -8.7823    0.0000E+000
  -8.7615    0.0000E+000
  -8.7406    0.0000E+000
  -8.7198    0.0000E+000
  -8.6989    0.0000E+000
  -8.6781    0.0000E+000
  -8.6572    0.0000E+000
  -8.6364    0.0000E+000
  -8.6155    0.0000E+000
  -8.5947    0.0000E+000
  -8.5738    0.0000E+000
  -8.5530    0.0000E+000
  -8.5321    0.0000E+000
  -8.5113    0.0000E+000
  -8.4904    0.0000E+000
  -8.4696    0.0000E+000
  -8.4487    0.0000E+000
  -8.4279    0.0000E+000
  -8.4070    0.0000E+000
  -8.3862    0.0000E+000
  -8.3653    0.0000E+000
  -8.3445    0.0000E+000
  -8.3236    0.0000E+000
  -8.3028    0.0000E+000
  -8.2819    0.0000E+000
  -8.2611    0.0000E+000
  -8.2402    0.0000E+000
  -8.2193    0.0000E+000
  -8.1985    0.0000E+000
  -8.1776    0.0000E+000
  -8.1568    0.0000E+000
  -8.1359    0.0000E+000
  -8.1151    0.0000E+000
  -8.0942    0.0000E+000
  -8.0734    0.0000E+000
  -8.0525    0.0000E+000
  -8.0317    0.0000E+000
  -8.0108    0.0000E+000
  -7.9900    0.0000E+000
  -7.9691    0.0000E+000
  -7.9483    0.0000E+000
  -7.9274    0.0000E+000
  -7.9066    0.0000E+000
  -7.8857    0.0000E+000
  -7.8649    0.0000E+000
  -7.8440    0.0000E+000
  -7.8232    0.0000E+000
  -7.8023    0.0000E+000
  -7.7815    0.0000E+000
  -7.7606    0.0000E+000
  -7.7398    0.0000E+000
  -7.7189    0.0000E+000
  -7.6981    0.0000E+000
  -7.6772    0.0000E+000
  -7.6564    0.0000E+000
  -7.6355    0.0000E+000
  -7.6147    0.0000E+000
  -7.5938    0.0000E+000
  -7.5730    0.0000E+000
  -7.5521    0.0000E+000
  -7.5313    0.0000E+000
  -7.5104    0.0000E+000
  -7.4896    0.0000E+000
  -7.4687    0.0000E+000
  -7.4479    0.0000E+000
  -7.4270    0.0000E+000
  -7.4062    0.0000E+000
  -7.3853    0.0000E+000
  -7.3645    0.0000E+000
  -7.3436    0.0000E+000
  -7.3228    0.0000E+000
  -7.3019    0.0000E+000
  -7.2811    0.0000E+000
  -7.2602    0.0000E+000
  -7.2394    0.0000E+000
  -7.2185    0.0000E+000
  -7.1977    0.0000E+000
  -7.1768    0.0000E+000
  -7.1560    0.0000E+000
  -7.1351    0.0000E+000
  -7.1143    0.0000E+000
  -7.0934    0.0000E+000
  -7.0726    0.0000E+000
  -7.0517    0.0000E+000
  -7.0309    0.0000E+000
  -7.0100    0.0000E+000
  -6.9892    0.0000E+000
  -6.9683    0.0000E+000
  -6.9475    0.0000E+000
  -6.9266    0.1127E-304
  -6.9058    0.3667E-295
  -6.8849    0.8416E-286
  -6.8641    0.1364E-276
  -6.8432    0.1562E-267
  -6.8224    0.1264E-258
  -6.8015    0.7220E-250
  -6.7807    0.2914E-241
  -6.7598    0.8305E-233
  -6.7389    0.1672E-224
  -6.7181    0.2378E-216
  -6.6972    0.2389E-208
  -6.6764    0.1695E-200
  -6.6555    0.8495E-193
  -6.6347    0.3007E-185
  -6.6138    0.7521E-178
  -6.5930    0.1328E-170
  -6.5721    0.1658E-163
  -6.5513    0.1461E-156
  -6.5304    0.9097E-150
  -6.5096    0.4001E-143
  -6.4887    0.1243E-136
  -6.4679    0.2729E-130
  -6.4470    0.4230E-124
  -6.4262    0.4634E-118
  -6.4053    0.3585E-112
  -6.3845    0.1960E-106
  -6.3636    0.7568E-101
  -6.3428    0.2065E-095
  -6.3219    0.3980E-090
  -6.3011    0.5420E-085
  -6.2802    0.5214E-080
  -6.2594    0.3544E-075
  -6.2385    0.1702E-070
  -6.2177    0.5777E-066
  -6.1968    0.1385E-061
  -6.1760    0.2347E-057
  -6.1551    0.2810E-053
  -6.1343    0.2378E-049
  -6.1134    0.1422E-045
  -6.0926    0.6008E-042
  -6.0717    0.1795E-038
  -6.0509    0.3789E-035
  -6.0300    0.5655E-032
  -6.0092    0.5966E-029
  -5.9883    0.4450E-026
  -5.9675    0.2347E-023
  -5.9466    0.8757E-021
  -5.9258    0.2310E-018
  -5.9049    0.4313E-016
  -5.8841    0.5696E-014
  -5.8632    0.5325E-012
  -5.8424    0.3525E-010
  -5.8215    0.1652E-008
  -5.8007    0.5491E-007
  -5.7798    0.1294E-005
  -5.7590    0.2164E-004
  -5.7381    0.2573E-003
  -5.7173    0.2177E-002
  -5.6964    0.1314E-001
  -5.6756    0.5683E-001
  -5.6547    0.1769E+000
  -5.6339    0.4001E+000
  -5.6130    0.6670E+000
  -5.5922    0.8419E+000
  -5.5713    0.8422E+000
  -5.5505    0.7195E+000
  -5.5296    0.5790E+000
  -5.5088    0.4764E+000
  -5.4879    0.4124E+000
  -5.4671    0.3714E+000
  -5.4462    0.3424E+000
  -5.4254    0.3202E+000
  -5.4045    0.3023E+000
  -5.3837    0.2874E+000
  -5.3628    0.2747E+000
  -5.3420    0.2636E+000
  -5.3211    0.2540E+000
  -5.3003    0.2454E+000
  -5.2794    0.2377E+000
  -5.2585    0.2307E+000
  -5.2377    0.2244E+000
  -5.2168    0.2186E+000
  -5.1960    0.2132E+000
  -5.1751    0.2083E+000
  -5.1543    0.2037E+000
  -5.1334    0.1994E+000
  -5.1126    0.1955E+000
  -5.0917    0.1917E+000
  -5.0709    0.1882E+000
  -5.0500    0.1849E+000
  -5.0292    0.1818E+000
  -5.0083    0.1788E+000
  -4.9875    0.1760E+000
  -4.9666    0.1734E+000
  -4.9458    0.1708E+000
  -4.9249    0.1684E+000
  -4.9041    0.1661E+000
  -4.8832    0.1639E+000
  -4.8624    0.1618E+000
  -4.8415    0.1598E+000
  -4.8207    0.1578E+000
  -4.7998    0.1560E+000
  -4.7790    0.1542E+000
  -4.7581    0.1525E+000
  -4.7373    0.1508E+000
  -4.7164    0.1492E+000
  -4.6956    0.1477E+000
  -4.6747    0.1462E+000
  -4.6539    0.1447E+000
  -4.6330    0.1433E+000
  -4.6122    0.1420E+000
  -4.5913    0.1407E+000
  -4.5705    0.1394E+000
  -4.5496    0.1382E+000
  -4.5288    0.1370E+000
  -4.5079    0.1359E+000
  -4.4871    0.1347E+000
  -4.4662    0.1336E+000
  -4.4454    0.1326E+000
  -4.4245    0.1316E+000
  -4.4037    0.1306E+000
  -4.3828    0.1296E+000
  -4.3620    0.1286E+000
  -4.3411    0.1277E+000
  -4.3203    0.1268E+000
  -4.2994    0.1259E+000
  -4.2786    0.1251E+000
  -4.2577    0.1243E+000
  -4.2369    0.1234E+000
  -4.2160    0.1227E+000
  -4.1952    0.1219E+000
  -4.1743    0.1211E+000
  -4.1535    0.1204E+000
  -4.1326    0.1197E+000
  -4.1118    0.1190E+000
  -4.0909    0.1183E+000
  -4.0701    0.1176E+000
  -4.0492    0.1170E+000
  -4.0284    0.1163E+000
  -4.0075    0.1157E+000
  -3.9867    0.1151E+000
  -3.9658    0.1145E+000
  -3.9450    0.1139E+000
  -3.9241    0.1133E+000
  -3.9033    0.1128E+000
  -3.8824    0.1122E+000
  -3.8616    0.1117E+000
  -3.8407    0.1111E+000
  -3.8198    0.1106E+000
  -3.7990    0.1101E+000
  -3.7781    0.1096E+000
  -3.7573    0.1092E+000
  -3.7364    0.1087E+000
  -3.7156    0.1082E+000
  -3.6947    0.1078E+000
  -3.6739    0.1073E+000
  -3.6530    0.1069E+000
  -3.6322    0.1065E+000
  -3.6113    0.1061E+000
  -3.5905    0.1057E+000
  -3.5696    0.1053E+000
  -3.5488    0.1049E+000
  -3.5279    0.1045E+000
  -3.5071    0.1041E+000
  -3.4862    0.1038E+000
  -3.4654    0.1034E+000
  -3.4445    0.1031E+000
  -3.4237    0.1036E+000
  -3.4028    0.1094E+000
  -3.3820    0.1421E+000
  -3.3611    0.2670E+000
  -3.3403    0.5952E+000
  -3.3194    0.1181E+001
  -3.2986    0.1862E+001
  -3.2777    0.2309E+001
  -3.2569    0.2342E+001
  -3.2360    0.2087E+001
  -3.2152    0.1777E+001
  -3.1943    0.1536E+001
  -3.1735    0.1373E+001
  -3.1526    0.1259E+001
  -3.1318    0.1175E+001
  -3.1109    0.1108E+001
  -3.0901    0.1053E+001
  -3.0692    0.1007E+001
  -3.0484    0.9668E+000
  -3.0275    0.9321E+000
  -3.0067    0.9014E+000
  -2.9858    0.8741E+000
  -2.9650    0.8496E+000
  -2.9441    0.8274E+000
  -2.9233    0.8072E+000
  -2.9024    0.7886E+000
  -2.8816    0.7716E+000
  -2.8607    0.7559E+000
  -2.8399    0.7413E+000
  -2.8190    0.7278E+000
  -2.7982    0.7152E+000
  -2.7773    0.7034E+000
  -2.7565    0.6923E+000
  -2.7356    0.6819E+000
  -2.7148    0.6722E+000
  -2.6939    0.6629E+000
  -2.6731    0.6542E+000
  -2.6522    0.6460E+000
  -2.6314    0.6382E+000
  -2.6105    0.6308E+000
  -2.5897    0.6238E+000
  -2.5688    0.6171E+000
  -2.5480    0.6108E+000
  -2.5271    0.6047E+000
  -2.5063    0.5990E+000
  -2.4854    0.5935E+000
  -2.4646    0.5883E+000
  -2.4437    0.5833E+000
  -2.4229    0.5785E+000
  -2.4020    0.5740E+000
  -2.3812    0.5697E+000
  -2.3603    0.5655E+000
  -2.3394    0.5615E+000
  -2.3186    0.5577E+000
  -2.2977    0.5541E+000
  -2.2769    0.5506E+000
  -2.2560    0.5473E+000
  -2.2352    0.5442E+000
  -2.2143    0.5411E+000
  -2.1935    0.5382E+000
  -2.1726    0.5355E+000
  -2.1518    0.5328E+000
  -2.1309    0.5303E+000
  -2.1101    0.5279E+000
  -2.0892    0.5256E+000
  -2.0684    0.5235E+000
  -2.0475    0.5214E+000
  -2.0267    0.5195E+000
  -2.0058    0.5176E+000
  -1.9850    0.5158E+000
  -1.9641    0.5142E+000
  -1.9433    0.5126E+000
  -1.9224    0.5112E+000
  -1.9016    0.5098E+000
  -1.8807    0.5086E+000
  -1.8599    0.5074E+000
  -1.8390    0.5063E+000
  -1.8182    0.5053E+000
  -1.7973    0.5044E+000
  -1.7765    0.5035E+000
  -1.7556    0.5028E+000
  -1.7348    0.5022E+000
  -1.7139    0.5016E+000
  -1.6931    0.5012E+000
  -1.6722    0.5020E+000
  -1.6514    0.5108E+000
  -1.6305    0.5626E+000
  -1.6097    0.7695E+000
  -1.5888    0.1341E+001
  -1.5680    0.2419E+001
  -1.5471    0.3757E+001
  -1.5263    0.4735E+001
  -1.5054    0.4932E+001
  -1.4846    0.4518E+001
  -1.4637    0.3944E+001
  -1.4429    0.3485E+001
  -1.4220    0.3178E+001
  -1.4012    0.2975E+001
  -1.3803    0.2832E+001
  -1.3595    0.2725E+001
  -1.3386    0.2643E+001
  -1.3178    0.2580E+001
  -1.2969    0.2532E+001
  -1.2761    0.2495E+001
  -1.2552    0.2469E+001
  -1.2344    0.2452E+001
  -1.2135    0.2445E+001
  -1.1927    0.2456E+001
  -1.1718    0.2515E+001
  -1.1510    0.2695E+001
  -1.1301    0.3072E+001
  -1.1093    0.3601E+001
  -1.0884    0.4051E+001
  -1.0676    0.4201E+001
  -1.0467    0.4085E+001
  -1.0259    0.3917E+001
  -1.0050    0.3856E+001
  -0.9842    0.3946E+001
  -0.9633    0.4200E+001
  -0.9425    0.4625E+001
  -0.9216    0.5117E+001
  -0.9008    0.5338E+001
  -0.8799    0.4887E+001
  -0.8590    0.3775E+001
  -0.8382    0.2521E+001
  -0.8173    0.1639E+001
  -0.7965    0.1220E+001
  -0.7756    0.1080E+001
  -0.7548    0.1043E+001
  -0.7339    0.1034E+001
  -0.7131    0.1029E+001
  -0.6922    0.1027E+001
  -0.6714    0.1025E+001
  -0.6505    0.1025E+001
  -0.6297    0.1026E+001
  -0.6088    0.1028E+001
  -0.5880    0.1031E+001
  -0.5671    0.1035E+001
  -0.5463    0.1040E+001
  -0.5254    0.1047E+001
  -0.5046    0.1055E+001
  -0.4837    0.1064E+001
  -0.4629    0.1075E+001
  -0.4420    0.1088E+001
  -0.4212    0.1103E+001
  -0.4003    0.1120E+001
  -0.3795    0.1140E+001
  -0.3586    0.1162E+001
  -0.3378    0.1189E+001
  -0.3169    0.1220E+001
  -0.2961    0.1256E+001
  -0.2752    0.1299E+001
  -0.2544    0.1352E+001
  -0.2335    0.1417E+001
  -0.2127    0.1503E+001
  -0.1918    0.1622E+001
  -0.1710    0.1790E+001
  -0.1501    0.2003E+001
  -0.1293    0.2208E+001
  -0.1084    0.2318E+001
  -0.0876    0.2292E+001
  -0.0667    0.2140E+001
  -0.0459    0.1844E+001
  -0.0250    0.1390E+001
  -0.0042    0.8823E+000
   0.0167    0.4914E+000
   0.0375    0.2839E+000
   0.0584    0.2061E+000
   0.0792    0.1839E+000
   0.1001    0.1772E+000
   0.1209    0.1736E+000
   0.1418    0.1704E+000
   0.1626    0.1673E+000
   0.1835    0.1644E+000
   0.2043    0.1615E+000
   0.2252    0.1587E+000
   0.2460    0.1560E+000
   0.2669    0.1534E+000
   0.2877    0.1509E+000
   0.3086    0.1484E+000
   0.3294    0.1460E+000
   0.3503    0.1437E+000
   0.3711    0.1414E+000
   0.3920    0.1393E+000
   0.4128    0.1372E+000
   0.4337    0.1351E+000
   0.4545    0.1332E+000
   0.4754    0.1313E+000
   0.4962    0.1294E+000
   0.5171    0.1276E+000
   0.5379    0.1259E+000
   0.5588    0.1242E+000
   0.5796    0.1226E+000
   0.6005    0.1211E+000
   0.6214    0.1196E+000
   0.6422    0.1181E+000
   0.6631    0.1167E+000
   0.6839    0.1153E+000
   0.7048    0.1140E+000
   0.7256    0.1127E+000
   0.7465    0.1115E+000
   0.7673    0.1103E+000
   0.7882    0.1091E+000
   0.8090    0.1080E+000
   0.8299    0.1069E+000
   0.8507    0.1059E+000
   0.8716    0.1049E+000
   0.8924    0.1039E+000
   0.9133    0.1030E+000
   0.9341    0.1021E+000
   0.9550    0.1012E+000
   0.9758    0.1003E+000
   0.9967    0.9950E-001
   1.0175    0.9868E-001
   1.0384    0.9791E-001
   1.0592    0.9717E-001
   1.0801    0.9641E-001
   1.1009    0.9575E-001
   1.1218    0.9503E-001
   1.1426    0.9437E-001
   1.1635    0.9377E-001
   1.1843    0.9309E-001
   1.2052    0.9255E-001
   1.2260    0.9194E-001
   1.2469    0.9134E-001
   1.2677    0.9088E-001
   1.2886    0.9026E-001
   1.3094    0.8978E-001
   1.3303    0.8934E-001
   1.3511    0.8873E-001
   1.3720    0.8838E-001
   1.3928    0.8789E-001
   1.4137    0.8736E-001
   1.4345    0.8710E-001
   1.4554    0.8656E-001
   1.4762    0.8613E-001
   1.4971    0.8592E-001
   1.5179    0.8532E-001
   1.5388    0.8504E-001
   1.5596    0.8481E-001
   1.5805    0.8420E-001
   1.6013    0.8404E-001
   1.6222    0.8378E-001
   1.6430    0.8318E-001
   1.6639    0.8313E-001
   1.6847    0.8283E-001
   1.7056    0.8225E-001
   1.7264    0.8230E-001
   1.7473    0.8195E-001
   1.7681    0.8139E-001
   1.7890    0.8153E-001
   1.8098    0.8114E-001
   1.8307    0.8061E-001
   1.8515    0.8081E-001
   1.8724    0.8040E-001
   1.8932    0.7988E-001
   1.9141    0.8015E-001
   1.9349    0.7974E-001
   1.9558    0.7919E-001
   1.9766    0.7953E-001
   1.9975    0.7914E-001
   2.0183    0.7856E-001
   2.0392    0.7894E-001
   2.0601    0.7860E-001
   2.0809    0.7796E-001
   2.1018    0.7838E-001
   2.1226    0.7813E-001
   2.1435    0.7740E-001
   2.1643    0.7784E-001
   2.1852    0.7771E-001
   2.2060    0.7690E-001
   2.2269    0.7730E-001
   2.2477    0.7734E-001
   2.2686    0.7645E-001
   2.2894    0.7677E-001
   2.3103    0.7701E-001
   2.3311    0.7608E-001
   2.3520    0.7623E-001
   2.3728    0.7669E-001
   2.3937    0.7577E-001
   2.4145    0.7571E-001
   2.4354    0.7636E-001
   2.4562    0.7555E-001
   2.4771    0.7521E-001
   2.4979    0.7600E-001
   2.5188    0.7541E-001
   2.5396    0.7477E-001
   2.5605    0.7559E-001
   2.5813    0.7532E-001
   2.6022    0.7442E-001
   2.6230    0.7514E-001
   2.6439    0.7524E-001
   2.6647    0.7418E-001
   2.6856    0.7464E-001
   2.7064    0.7515E-001
   2.7273    0.7407E-001
   2.7481    0.7415E-001
   2.7690    0.7498E-001
   2.7898    0.7408E-001
   2.8107    0.7370E-001
   2.8315    0.7471E-001
   2.8524    0.7417E-001
   2.8732    0.7337E-001
   2.8941    0.7434E-001
   2.9149    0.7430E-001
   2.9358    0.7320E-001
   2.9566    0.7388E-001
   2.9775    0.7437E-001
   2.9983    0.7321E-001
   3.0192    0.7342E-001
   3.0400    0.7434E-001
   3.0609    0.7337E-001
   3.0817    0.7303E-001
   3.1026    0.7416E-001
   3.1234    0.7363E-001
   3.1443    0.7279E-001
   3.1651    0.7384E-001
   3.1860    0.7390E-001
   3.2068    0.7276E-001
   3.2277    0.7345E-001
   3.2485    0.7409E-001
   3.2694    0.7293E-001
   3.2902    0.7307E-001
   3.3111    0.7412E-001
   3.3319    0.7326E-001
   3.3528    0.7282E-001
   3.3736    0.7400E-001
   3.3945    0.7366E-001
   3.4153    0.7275E-001
   3.4362    0.7377E-001
   3.4570    0.7402E-001
   3.4779    0.7290E-001
   3.4987    0.7350E-001
   3.5196    0.7429E-001
   3.5405    0.7325E-001
   3.5613    0.7330E-001
   3.5822    0.7441E-001
   3.6030    0.7371E-001
   3.6239    0.7325E-001
   3.6447    0.7442E-001
   3.6656    0.7421E-001
   3.6864    0.7338E-001
   3.7073    0.7436E-001
   3.7281    0.7468E-001
   3.7490    0.7371E-001
   3.7698    0.7433E-001
   3.7907    0.7507E-001
   3.8115    0.7418E-001
   3.8324    0.7438E-001
   3.8532    0.7539E-001
   3.8741    0.7475E-001
   3.8949    0.7457E-001
   3.9158    0.7566E-001
   3.9366    0.7537E-001
   3.9575    0.7491E-001
   3.9783    0.7594E-001
   3.9992    0.7599E-001
   4.0200    0.7540E-001
   4.0409    0.7626E-001
   4.0617    0.7662E-001
   4.0826    0.7601E-001
   4.1034    0.7669E-001
   4.1243    0.7726E-001
   4.1451    0.7672E-001
   4.1660    0.7723E-001
   4.1868    0.7794E-001
   4.2077    0.7752E-001
   4.2285    0.7790E-001
   4.2494    0.7869E-001
   4.2702    0.7840E-001
   4.2911    0.7873E-001
   4.3119    0.7953E-001
   4.3328    0.7938E-001
   4.3536    0.7971E-001
   4.3745    0.8051E-001
   4.3953    0.8048E-001
   4.4162    0.8086E-001
   4.4370    0.8165E-001
   4.4579    0.8173E-001
   4.4787    0.8221E-001
   4.4996    0.8299E-001
   4.5204    0.8319E-001
   4.5413    0.8381E-001
   4.5621    0.8458E-001
   4.5830    0.8493E-001
   4.6038    0.8572E-001
   4.6247    0.8651E-001
   4.6455    0.8708E-001
   4.6664    0.8804E-001
   4.6872    0.8891E-001
   4.7081    0.8979E-001
   4.7289    0.9096E-001
   4.7498    0.9206E-001
   4.7706    0.9336E-001
   4.7915    0.9487E-001
   4.8123    0.9646E-001
   4.8332    0.9839E-001
   4.8540    0.1006E+000
   4.8749    0.1033E+000
   4.8957    0.1067E+000
   4.9166    0.1125E+000
   4.9374    0.1276E+000
   4.9583    0.1743E+000
   4.9791    0.2947E+000
   5.0000    0.5183E+000
