 # E (eV)   ldos(E)
 -15.0000    0.0000E+000
 -14.9925    0.0000E+000
 -14.9850    0.0000E+000
 -14.9775    0.0000E+000
 -14.9700    0.0000E+000
 -14.9625    0.0000E+000
 -14.9550    0.0000E+000
 -14.9475    0.0000E+000
 -14.9400    0.0000E+000
 -14.9325    0.0000E+000
 -14.9250    0.0000E+000
 -14.9175    0.0000E+000
 -14.9100    0.0000E+000
 -14.9025    0.0000E+000
 -14.8950    0.0000E+000
 -14.8875    0.0000E+000
 -14.8800    0.0000E+000
 -14.8725    0.0000E+000
 -14.8650    0.0000E+000
 -14.8575    0.0000E+000
 -14.8500    0.0000E+000
 -14.8425    0.0000E+000
 -14.8350    0.0000E+000
 -14.8275    0.0000E+000
 -14.8200    0.0000E+000
 -14.8125    0.0000E+000
 -14.8050    0.0000E+000
 -14.7974    0.0000E+000
 -14.7899    0.0000E+000
 -14.7824    0.0000E+000
 -14.7749    0.0000E+000
 -14.7674    0.0000E+000
 -14.7599    0.0000E+000
 -14.7524    0.0000E+000
 -14.7449    0.0000E+000
 -14.7374    0.0000E+000
 -14.7299    0.0000E+000
 -14.7224    0.0000E+000
 -14.7149    0.0000E+000
 -14.7074    0.0000E+000
 -14.6999    0.0000E+000
 -14.6924    0.0000E+000
 -14.6849    0.0000E+000
 -14.6774    0.0000E+000
 -14.6699    0.0000E+000
 -14.6624    0.0000E+000
 -14.6549    0.3458E-322
 -14.6474    0.1952E-320
 -14.6399    0.1135E-318
 -14.6324    0.6528E-317
 -14.6249    0.3712E-315
 -14.6174    0.2086E-313
 -14.6099    0.1160E-311
 -14.6024    0.6375E-310
 -14.5949    0.3465E-308
 -14.5874    0.1862E-306
 -14.5799    0.9894E-305
 -14.5724    0.5199E-303
 -14.5649    0.2701E-301
 -14.5574    0.1388E-299
 -14.5499    0.7049E-298
 -14.5424    0.3541E-296
 -14.5349    0.1759E-294
 -14.5274    0.8638E-293
 -14.5199    0.4195E-291
 -14.5124    0.2014E-289
 -14.5049    0.9564E-288
 -14.4974    0.4491E-286
 -14.4899    0.2085E-284
 -14.4824    0.9570E-283
 -14.4749    0.4344E-281
 -14.4674    0.1950E-279
 -14.4599    0.8654E-278
 -14.4524    0.3798E-276
 -14.4449    0.1648E-274
 -14.4374    0.7071E-273
 -14.4299    0.3000E-271
 -14.4224    0.1259E-269
 -14.4149    0.5221E-268
 -14.4074    0.2142E-266
 -14.3998    0.8686E-265
 -14.3923    0.3484E-263
 -14.3848    0.1382E-261
 -14.3773    0.5417E-260
 -14.3698    0.2101E-258
 -14.3623    0.8054E-257
 -14.3548    0.3053E-255
 -14.3473    0.1145E-253
 -14.3398    0.4243E-252
 -14.3323    0.1555E-250
 -14.3248    0.5636E-249
 -14.3173    0.2020E-247
 -14.3098    0.7157E-246
 -14.3023    0.2508E-244
 -14.2948    0.8688E-243
 -14.2873    0.2976E-241
 -14.2798    0.1008E-239
 -14.2723    0.3377E-238
 -14.2648    0.1119E-236
 -14.2573    0.3664E-235
 -14.2498    0.1186E-233
 -14.2423    0.3799E-232
 -14.2348    0.1203E-230
 -14.2273    0.3766E-229
 -14.2198    0.1166E-227
 -14.2123    0.3569E-226
 -14.2048    0.1080E-224
 -14.1973    0.3234E-223
 -14.1898    0.9570E-222
 -14.1823    0.2801E-220
 -14.1748    0.8104E-219
 -14.1673    0.2319E-217
 -14.1598    0.6560E-216
 -14.1523    0.1835E-214
 -14.1448    0.5077E-213
 -14.1373    0.1389E-211
 -14.1298    0.3756E-210
 -14.1223    0.1005E-208
 -14.1148    0.2656E-207
 -14.1073    0.6946E-206
 -14.0998    0.1796E-204
 -14.0923    0.4592E-203
 -14.0848    0.1161E-201
 -14.0773    0.2902E-200
 -14.0698    0.7173E-199
 -14.0623    0.1753E-197
 -14.0548    0.4237E-196
 -14.0473    0.1013E-194
 -14.0398    0.2393E-193
 -14.0323    0.5590E-192
 -14.0248    0.1292E-190
 -14.0173    0.2951E-189
 -14.0098    0.6665E-188
 -14.0023    0.1489E-186
 -13.9947    0.3288E-185
 -13.9872    0.7182E-184
 -13.9797    0.1551E-182
 -13.9722    0.3312E-181
 -13.9647    0.6992E-180
 -13.9572    0.1460E-178
 -13.9497    0.3014E-177
 -13.9422    0.6152E-176
 -13.9347    0.1242E-174
 -13.9272    0.2478E-173
 -13.9197    0.4891E-172
 -13.9122    0.9545E-171
 -13.9047    0.1842E-169
 -13.8972    0.3514E-168
 -13.8897    0.6630E-167
 -13.8822    0.1237E-165
 -13.8747    0.2282E-164
 -13.8672    0.4162E-163
 -13.8597    0.7507E-162
 -13.8522    0.1339E-160
 -13.8447    0.2361E-159
 -13.8372    0.4117E-158
 -13.8297    0.7098E-157
 -13.8222    0.1210E-155
 -13.8147    0.2040E-154
 -13.8072    0.3401E-153
 -13.7997    0.5605E-152
 -13.7922    0.9136E-151
 -13.7847    0.1472E-149
 -13.7772    0.2346E-148
 -13.7697    0.3697E-147
 -13.7622    0.5760E-146
 -13.7547    0.8875E-145
 -13.7472    0.1352E-143
 -13.7397    0.2037E-142
 -13.7322    0.3034E-141
 -13.7247    0.4468E-140
 -13.7172    0.6507E-139
 -13.7097    0.9370E-138
 -13.7022    0.1334E-136
 -13.6947    0.1879E-135
 -13.6872    0.2615E-134
 -13.6797    0.3601E-133
 -13.6722    0.4901E-132
 -13.6647    0.6597E-131
 -13.6572    0.8780E-130
 -13.6497    0.1156E-128
 -13.6422    0.1504E-127
 -13.6347    0.1935E-126
 -13.6272    0.2462E-125
 -13.6197    0.3097E-124
 -13.6122    0.3853E-123
 -13.6047    0.4740E-122
 -13.5971    0.5765E-121
 -13.5896    0.6934E-120
 -13.5821    0.8246E-119
 -13.5746    0.9697E-118
 -13.5671    0.1128E-116
 -13.5596    0.1296E-115
 -13.5521    0.1474E-114
 -13.5446    0.1657E-113
 -13.5371    0.1842E-112
 -13.5296    0.2024E-111
 -13.5221    0.2200E-110
 -13.5146    0.2365E-109
 -13.5071    0.2513E-108
 -13.4996    0.2640E-107
 -13.4921    0.2743E-106
 -13.4846    0.2818E-105
 -13.4771    0.2863E-104
 -13.4696    0.2876E-103
 -13.4621    0.2857E-102
 -13.4546    0.2806E-101
 -13.4471    0.2725E-100
 -13.4396    0.2617E-099
 -13.4321    0.2484E-098
 -13.4246    0.2333E-097
 -13.4171    0.2166E-096
 -13.4096    0.1988E-095
 -13.4021    0.1805E-094
 -13.3946    0.1620E-093
 -13.3871    0.1438E-092
 -13.3796    0.1262E-091
 -13.3721    0.1095E-090
 -13.3646    0.9394E-090
 -13.3571    0.7971E-089
 -13.3496    0.6687E-088
 -13.3421    0.5547E-087
 -13.3346    0.4550E-086
 -13.3271    0.3691E-085
 -13.3196    0.2960E-084
 -13.3121    0.2348E-083
 -13.3046    0.1841E-082
 -13.2971    0.1427E-081
 -13.2896    0.1094E-080
 -13.2821    0.8297E-080
 -13.2746    0.6220E-079
 -13.2671    0.4611E-078
 -13.2596    0.3379E-077
 -13.2521    0.2449E-076
 -13.2446    0.1755E-075
 -13.2371    0.1244E-074
 -13.2296    0.8715E-074
 -13.2221    0.6038E-073
 -13.2146    0.4137E-072
 -13.2071    0.2802E-071
 -13.1995    0.1877E-070
 -13.1920    0.1243E-069
 -13.1845    0.8143E-069
 -13.1770    0.5274E-068
 -13.1695    0.3377E-067
 -13.1620    0.2138E-066
 -13.1545    0.1339E-065
 -13.1470    0.8288E-065
 -13.1395    0.5074E-064
 -13.1320    0.3071E-063
 -13.1245    0.1838E-062
 -13.1170    0.1088E-061
 -13.1095    0.6367E-061
 -13.1020    0.3684E-060
 -13.0945    0.2108E-059
 -13.0870    0.1193E-058
 -13.0795    0.6673E-058
 -13.0720    0.3691E-057
 -13.0645    0.2019E-056
 -13.0570    0.1092E-055
 -13.0495    0.5841E-055
 -13.0420    0.3089E-054
 -13.0345    0.1615E-053
 -13.0270    0.8352E-053
 -13.0195    0.4270E-052
 -13.0120    0.2159E-051
 -13.0045    0.1079E-050
 -12.9970    0.5334E-050
 -12.9895    0.2607E-049
 -12.9820    0.1260E-048
 -12.9745    0.6022E-048
 -12.9670    0.2846E-047
 -12.9595    0.1330E-046
 -12.9520    0.6143E-046
 -12.9445    0.2806E-045
 -12.9370    0.1268E-044
 -12.9295    0.5663E-044
 -12.9220    0.2501E-043
 -12.9145    0.1092E-042
 -12.9070    0.4717E-042
 -12.8995    0.2014E-041
 -12.8920    0.8506E-041
 -12.8845    0.3551E-040
 -12.8770    0.1466E-039
 -12.8695    0.5985E-039
 -12.8620    0.2416E-038
 -12.8545    0.9642E-038
 -12.8470    0.3805E-037
 -12.8395    0.1485E-036
 -12.8320    0.5730E-036
 -12.8245    0.2187E-035
 -12.8170    0.8249E-035
 -12.8095    0.3078E-034
 -12.8020    0.1135E-033
 -12.7944    0.4141E-033
 -12.7869    0.1494E-032
 -12.7794    0.5327E-032
 -12.7719    0.1879E-031
 -12.7644    0.6550E-031
 -12.7569    0.2259E-030
 -12.7494    0.7701E-030
 -12.7419    0.2596E-029
 -12.7344    0.8654E-029
 -12.7269    0.2853E-028
 -12.7194    0.9297E-028
 -12.7119    0.2996E-027
 -12.7044    0.9549E-027
 -12.6969    0.3009E-026
 -12.6894    0.9375E-026
 -12.6819    0.2888E-025
 -12.6744    0.8800E-025
 -12.6669    0.2651E-024
 -12.6594    0.7896E-024
 -12.6519    0.2326E-023
 -12.6444    0.6773E-023
 -12.6369    0.1950E-022
 -12.6294    0.5554E-022
 -12.6219    0.1564E-021
 -12.6144    0.4354E-021
 -12.6069    0.1199E-020
 -12.5994    0.3263E-020
 -12.5919    0.8782E-020
 -12.5844    0.2338E-019
 -12.5769    0.6152E-019
 -12.5694    0.1601E-018
 -12.5619    0.4119E-018
 -12.5544    0.1048E-017
 -12.5469    0.2637E-017
 -12.5394    0.6560E-017
 -12.5319    0.1614E-016
 -12.5244    0.3925E-016
 -12.5169    0.9441E-016
 -12.5094    0.2245E-015
 -12.5019    0.5280E-015
 -12.4944    0.1228E-014
 -12.4869    0.2823E-014
 -12.4794    0.6419E-014
 -12.4719    0.1443E-013
 -12.4644    0.3208E-013
 -12.4569    0.7051E-013
 -12.4494    0.1532E-012
 -12.4419    0.3293E-012
 -12.4344    0.6999E-012
 -12.4269    0.1471E-011
 -12.4194    0.3056E-011
 -12.4119    0.6278E-011
 -12.4044    0.1275E-010
 -12.3968    0.2562E-010
 -12.3893    0.5089E-010
 -12.3818    0.9996E-010
 -12.3743    0.1941E-009
 -12.3668    0.3728E-009
 -12.3593    0.7080E-009
 -12.3518    0.1329E-008
 -12.3443    0.2468E-008
 -12.3368    0.4531E-008
 -12.3293    0.8226E-008
 -12.3218    0.1477E-007
 -12.3143    0.2621E-007
 -12.3068    0.4601E-007
 -12.2993    0.7985E-007
 -12.2918    0.1370E-006
 -12.2843    0.2325E-006
 -12.2768    0.3902E-006
 -12.2693    0.6475E-006
 -12.2618    0.1062E-005
 -12.2543    0.1724E-005
 -12.2468    0.2766E-005
 -12.2393    0.4388E-005
 -12.2318    0.6885E-005
 -12.2243    0.1068E-004
 -12.2168    0.1639E-004
 -12.2093    0.2486E-004
 -12.2018    0.3730E-004
 -12.1943    0.5535E-004
 -12.1868    0.8122E-004
 -12.1793    0.1179E-003
 -12.1718    0.1692E-003
 -12.1643    0.2401E-003
 -12.1568    0.3371E-003
 -12.1493    0.4682E-003
 -12.1418    0.6431E-003
 -12.1343    0.8738E-003
 -12.1268    0.1174E-002
 -12.1193    0.1562E-002
 -12.1118    0.2055E-002
 -12.1043    0.2675E-002
 -12.0968    0.3446E-002
 -12.0893    0.4394E-002
 -12.0818    0.5545E-002
 -12.0743    0.6928E-002
 -12.0668    0.8571E-002
 -12.0593    0.1050E-001
 -12.0518    0.1274E-001
 -12.0443    0.1532E-001
 -12.0368    0.1826E-001
 -12.0293    0.2157E-001
 -12.0218    0.2527E-001
 -12.0143    0.2937E-001
 -12.0068    0.3388E-001
 -11.9992    0.3880E-001
 -11.9917    0.4414E-001
 -11.9842    0.4989E-001
 -11.9767    0.5607E-001
 -11.9692    0.6269E-001
 -11.9617    0.6974E-001
 -11.9542    0.7724E-001
 -11.9467    0.8520E-001
 -11.9392    0.9364E-001
 -11.9317    0.1026E+000
 -11.9242    0.1120E+000
 -11.9167    0.1220E+000
 -11.9092    0.1325E+000
 -11.9017    0.1436E+000
 -11.8942    0.1552E+000
 -11.8867    0.1673E+000
 -11.8792    0.1800E+000
 -11.8717    0.1932E+000
 -11.8642    0.2068E+000
 -11.8567    0.2209E+000
 -11.8492    0.2353E+000
 -11.8417    0.2502E+000
 -11.8342    0.2654E+000
 -11.8267    0.2809E+000
 -11.8192    0.2968E+000
 -11.8117    0.3129E+000
 -11.8042    0.3292E+000
 -11.7967    0.3458E+000
 -11.7892    0.3626E+000
 -11.7817    0.3795E+000
 -11.7742    0.3966E+000
 -11.7667    0.4138E+000
 -11.7592    0.4311E+000
 -11.7517    0.4482E+000
 -11.7442    0.4653E+000
 -11.7367    0.4821E+000
 -11.7292    0.4986E+000
 -11.7217    0.5146E+000
 -11.7142    0.5300E+000
 -11.7067    0.5448E+000
 -11.6992    0.5588E+000
 -11.6917    0.5719E+000
 -11.6842    0.5841E+000
 -11.6767    0.5954E+000
 -11.6692    0.6056E+000
 -11.6617    0.6150E+000
 -11.6542    0.6234E+000
 -11.6467    0.6310E+000
 -11.6392    0.6378E+000
 -11.6317    0.6439E+000
 -11.6242    0.6494E+000
 -11.6167    0.6544E+000
 -11.6092    0.6590E+000
 -11.6017    0.6632E+000
 -11.5941    0.6670E+000
 -11.5866    0.6706E+000
 -11.5791    0.6738E+000
 -11.5716    0.6766E+000
 -11.5641    0.6791E+000
 -11.5566    0.6812E+000
 -11.5491    0.6828E+000
 -11.5416    0.6838E+000
 -11.5341    0.6844E+000
 -11.5266    0.6844E+000
 -11.5191    0.6839E+000
 -11.5116    0.6828E+000
 -11.5041    0.6813E+000
 -11.4966    0.6792E+000
 -11.4891    0.6768E+000
 -11.4816    0.6740E+000
 -11.4741    0.6710E+000
 -11.4666    0.6677E+000
 -11.4591    0.6642E+000
 -11.4516    0.6607E+000
 -11.4441    0.6572E+000
 -11.4366    0.6537E+000
 -11.4291    0.6505E+000
 -11.4216    0.6476E+000
 -11.4141    0.6452E+000
 -11.4066    0.6436E+000
 -11.3991    0.6429E+000
 -11.3916    0.6433E+000
 -11.3841    0.6452E+000
 -11.3766    0.6488E+000
 -11.3691    0.6541E+000
 -11.3616    0.6615E+000
 -11.3541    0.6708E+000
 -11.3466    0.6822E+000
 -11.3391    0.6956E+000
 -11.3316    0.7107E+000
 -11.3241    0.7273E+000
 -11.3166    0.7450E+000
 -11.3091    0.7636E+000
 -11.3016    0.7827E+000
 -11.2941    0.8017E+000
 -11.2866    0.8205E+000
 -11.2791    0.8386E+000
 -11.2716    0.8559E+000
 -11.2641    0.8721E+000
 -11.2566    0.8873E+000
 -11.2491    0.9016E+000
 -11.2416    0.9150E+000
 -11.2341    0.9278E+000
 -11.2266    0.9403E+000
 -11.2191    0.9527E+000
 -11.2116    0.9653E+000
 -11.2041    0.9783E+000
 -11.1965    0.9919E+000
 -11.1890    0.1006E+001
 -11.1815    0.1021E+001
 -11.1740    0.1037E+001
 -11.1665    0.1053E+001
 -11.1590    0.1069E+001
 -11.1515    0.1084E+001
 -11.1440    0.1100E+001
 -11.1365    0.1114E+001
 -11.1290    0.1128E+001
 -11.1215    0.1140E+001
 -11.1140    0.1150E+001
 -11.1065    0.1159E+001
 -11.0990    0.1167E+001
 -11.0915    0.1173E+001
 -11.0840    0.1177E+001
 -11.0765    0.1179E+001
 -11.0690    0.1181E+001
 -11.0615    0.1181E+001
 -11.0540    0.1179E+001
 -11.0465    0.1177E+001
 -11.0390    0.1173E+001
 -11.0315    0.1168E+001
 -11.0240    0.1161E+001
 -11.0165    0.1154E+001
 -11.0090    0.1144E+001
 -11.0015    0.1134E+001
 -10.9940    0.1123E+001
 -10.9865    0.1111E+001
 -10.9790    0.1099E+001
 -10.9715    0.1087E+001
 -10.9640    0.1075E+001
 -10.9565    0.1065E+001
 -10.9490    0.1056E+001
 -10.9415    0.1049E+001
 -10.9340    0.1044E+001
 -10.9265    0.1042E+001
 -10.9190    0.1042E+001
 -10.9115    0.1045E+001
 -10.9040    0.1050E+001
 -10.8965    0.1057E+001
 -10.8890    0.1066E+001
 -10.8815    0.1076E+001
 -10.8740    0.1086E+001
 -10.8665    0.1096E+001
 -10.8590    0.1106E+001
 -10.8515    0.1114E+001
 -10.8440    0.1121E+001
 -10.8365    0.1127E+001
 -10.8290    0.1131E+001
 -10.8215    0.1133E+001
 -10.8140    0.1133E+001
 -10.8065    0.1132E+001
 -10.7989    0.1130E+001
 -10.7914    0.1127E+001
 -10.7839    0.1124E+001
 -10.7764    0.1120E+001
 -10.7689    0.1116E+001
 -10.7614    0.1113E+001
 -10.7539    0.1111E+001
 -10.7464    0.1109E+001
 -10.7389    0.1108E+001
 -10.7314    0.1109E+001
 -10.7239    0.1110E+001
 -10.7164    0.1112E+001
 -10.7089    0.1115E+001
 -10.7014    0.1119E+001
 -10.6939    0.1123E+001
 -10.6864    0.1128E+001
 -10.6789    0.1132E+001
 -10.6714    0.1137E+001
 -10.6639    0.1141E+001
 -10.6564    0.1145E+001
 -10.6489    0.1148E+001
 -10.6414    0.1150E+001
 -10.6339    0.1150E+001
 -10.6264    0.1149E+001
 -10.6189    0.1147E+001
 -10.6114    0.1143E+001
 -10.6039    0.1139E+001
 -10.5964    0.1133E+001
 -10.5889    0.1128E+001
 -10.5814    0.1123E+001
 -10.5739    0.1119E+001
 -10.5664    0.1117E+001
 -10.5589    0.1117E+001
 -10.5514    0.1121E+001
 -10.5439    0.1129E+001
 -10.5364    0.1142E+001
 -10.5289    0.1160E+001
 -10.5214    0.1183E+001
 -10.5139    0.1213E+001
 -10.5064    0.1247E+001
 -10.4989    0.1287E+001
 -10.4914    0.1332E+001
 -10.4839    0.1381E+001
 -10.4764    0.1432E+001
 -10.4689    0.1485E+001
 -10.4614    0.1539E+001
 -10.4539    0.1593E+001
 -10.4464    0.1645E+001
 -10.4389    0.1694E+001
 -10.4314    0.1739E+001
 -10.4239    0.1779E+001
 -10.4164    0.1814E+001
 -10.4089    0.1844E+001
 -10.4014    0.1867E+001
 -10.3938    0.1885E+001
 -10.3863    0.1897E+001
 -10.3788    0.1904E+001
 -10.3713    0.1906E+001
 -10.3638    0.1904E+001
 -10.3563    0.1899E+001
 -10.3488    0.1891E+001
 -10.3413    0.1881E+001
 -10.3338    0.1868E+001
 -10.3263    0.1855E+001
 -10.3188    0.1840E+001
 -10.3113    0.1824E+001
 -10.3038    0.1808E+001
 -10.2963    0.1790E+001
 -10.2888    0.1770E+001
 -10.2813    0.1749E+001
 -10.2738    0.1727E+001
 -10.2663    0.1702E+001
 -10.2588    0.1675E+001
 -10.2513    0.1646E+001
 -10.2438    0.1615E+001
 -10.2363    0.1582E+001
 -10.2288    0.1547E+001
 -10.2213    0.1511E+001
 -10.2138    0.1474E+001
 -10.2063    0.1436E+001
 -10.1988    0.1399E+001
 -10.1913    0.1362E+001
 -10.1838    0.1326E+001
 -10.1763    0.1291E+001
 -10.1688    0.1259E+001
 -10.1613    0.1229E+001
 -10.1538    0.1202E+001
 -10.1463    0.1179E+001
 -10.1388    0.1159E+001
 -10.1313    0.1143E+001
 -10.1238    0.1131E+001
 -10.1163    0.1123E+001
 -10.1088    0.1120E+001
 -10.1013    0.1121E+001
 -10.0938    0.1127E+001
 -10.0863    0.1138E+001
 -10.0788    0.1154E+001
 -10.0713    0.1175E+001
 -10.0638    0.1201E+001
 -10.0563    0.1232E+001
 -10.0488    0.1268E+001
 -10.0413    0.1308E+001
 -10.0338    0.1352E+001
 -10.0263    0.1401E+001
 -10.0188    0.1453E+001
 -10.0113    0.1507E+001
 -10.0038    0.1565E+001
  -9.9962    0.1624E+001
  -9.9887    0.1685E+001
  -9.9812    0.1747E+001
  -9.9737    0.1810E+001
  -9.9662    0.1872E+001
  -9.9587    0.1934E+001
  -9.9512    0.1995E+001
  -9.9437    0.2055E+001
  -9.9362    0.2112E+001
  -9.9287    0.2167E+001
  -9.9212    0.2220E+001
  -9.9137    0.2269E+001
  -9.9062    0.2315E+001
  -9.8987    0.2358E+001
  -9.8912    0.2396E+001
  -9.8837    0.2431E+001
  -9.8762    0.2462E+001
  -9.8687    0.2488E+001
  -9.8612    0.2510E+001
  -9.8537    0.2529E+001
  -9.8462    0.2543E+001
  -9.8387    0.2552E+001
  -9.8312    0.2558E+001
  -9.8237    0.2559E+001
  -9.8162    0.2556E+001
  -9.8087    0.2548E+001
  -9.8012    0.2535E+001
  -9.7937    0.2518E+001
  -9.7862    0.2497E+001
  -9.7787    0.2471E+001
  -9.7712    0.2441E+001
  -9.7637    0.2408E+001
  -9.7562    0.2373E+001
  -9.7487    0.2335E+001
  -9.7412    0.2298E+001
  -9.7337    0.2261E+001
  -9.7262    0.2226E+001
  -9.7187    0.2194E+001
  -9.7112    0.2167E+001
  -9.7037    0.2146E+001
  -9.6962    0.2131E+001
  -9.6887    0.2123E+001
  -9.6812    0.2123E+001
  -9.6737    0.2129E+001
  -9.6662    0.2142E+001
  -9.6587    0.2159E+001
  -9.6512    0.2180E+001
  -9.6437    0.2203E+001
  -9.6362    0.2226E+001
  -9.6287    0.2247E+001
  -9.6212    0.2265E+001
  -9.6137    0.2277E+001
  -9.6062    0.2283E+001
  -9.5986    0.2282E+001
  -9.5911    0.2273E+001
  -9.5836    0.2257E+001
  -9.5761    0.2233E+001
  -9.5686    0.2205E+001
  -9.5611    0.2172E+001
  -9.5536    0.2137E+001
  -9.5461    0.2102E+001
  -9.5386    0.2070E+001
  -9.5311    0.2042E+001
  -9.5236    0.2021E+001
  -9.5161    0.2008E+001
  -9.5086    0.2005E+001
  -9.5011    0.2012E+001
  -9.4936    0.2029E+001
  -9.4861    0.2057E+001
  -9.4786    0.2094E+001
  -9.4711    0.2139E+001
  -9.4636    0.2190E+001
  -9.4561    0.2246E+001
  -9.4486    0.2305E+001
  -9.4411    0.2363E+001
  -9.4336    0.2419E+001
  -9.4261    0.2471E+001
  -9.4186    0.2518E+001
  -9.4111    0.2557E+001
  -9.4036    0.2589E+001
  -9.3961    0.2612E+001
  -9.3886    0.2626E+001
  -9.3811    0.2633E+001
  -9.3736    0.2632E+001
  -9.3661    0.2625E+001
  -9.3586    0.2614E+001
  -9.3511    0.2601E+001
  -9.3436    0.2586E+001
  -9.3361    0.2571E+001
  -9.3286    0.2559E+001
  -9.3211    0.2550E+001
  -9.3136    0.2545E+001
  -9.3061    0.2545E+001
  -9.2986    0.2551E+001
  -9.2911    0.2562E+001
  -9.2836    0.2578E+001
  -9.2761    0.2598E+001
  -9.2686    0.2620E+001
  -9.2611    0.2644E+001
  -9.2536    0.2667E+001
  -9.2461    0.2689E+001
  -9.2386    0.2707E+001
  -9.2311    0.2721E+001
  -9.2236    0.2727E+001
  -9.2161    0.2726E+001
  -9.2086    0.2717E+001
  -9.2011    0.2699E+001
  -9.1935    0.2672E+001
  -9.1860    0.2636E+001
  -9.1785    0.2592E+001
  -9.1710    0.2541E+001
  -9.1635    0.2483E+001
  -9.1560    0.2421E+001
  -9.1485    0.2354E+001
  -9.1410    0.2286E+001
  -9.1335    0.2216E+001
  -9.1260    0.2146E+001
  -9.1185    0.2079E+001
  -9.1110    0.2013E+001
  -9.1035    0.1951E+001
  -9.0960    0.1893E+001
  -9.0885    0.1840E+001
  -9.0810    0.1793E+001
  -9.0735    0.1750E+001
  -9.0660    0.1714E+001
  -9.0585    0.1683E+001
  -9.0510    0.1659E+001
  -9.0435    0.1640E+001
  -9.0360    0.1626E+001
  -9.0285    0.1618E+001
  -9.0210    0.1616E+001
  -9.0135    0.1618E+001
  -9.0060    0.1625E+001
  -8.9985    0.1636E+001
  -8.9910    0.1651E+001
  -8.9835    0.1670E+001
  -8.9760    0.1691E+001
  -8.9685    0.1715E+001
  -8.9610    0.1741E+001
  -8.9535    0.1769E+001
  -8.9460    0.1799E+001
  -8.9385    0.1829E+001
  -8.9310    0.1860E+001
  -8.9235    0.1891E+001
  -8.9160    0.1923E+001
  -8.9085    0.1955E+001
  -8.9010    0.1986E+001
  -8.8935    0.2018E+001
  -8.8860    0.2050E+001
  -8.8785    0.2081E+001
  -8.8710    0.2113E+001
  -8.8635    0.2145E+001
  -8.8560    0.2177E+001
  -8.8485    0.2209E+001
  -8.8410    0.2242E+001
  -8.8335    0.2275E+001
  -8.8260    0.2308E+001
  -8.8185    0.2341E+001
  -8.8110    0.2374E+001
  -8.8035    0.2405E+001
  -8.7959    0.2435E+001
  -8.7884    0.2462E+001
  -8.7809    0.2486E+001
  -8.7734    0.2506E+001
  -8.7659    0.2520E+001
  -8.7584    0.2529E+001
  -8.7509    0.2530E+001
  -8.7434    0.2524E+001
  -8.7359    0.2510E+001
  -8.7284    0.2488E+001
  -8.7209    0.2456E+001
  -8.7134    0.2417E+001
  -8.7059    0.2370E+001
  -8.6984    0.2315E+001
  -8.6909    0.2254E+001
  -8.6834    0.2187E+001
  -8.6759    0.2117E+001
  -8.6684    0.2044E+001
  -8.6609    0.1970E+001
  -8.6534    0.1897E+001
  -8.6459    0.1825E+001
  -8.6384    0.1755E+001
  -8.6309    0.1689E+001
  -8.6234    0.1627E+001
  -8.6159    0.1569E+001
  -8.6084    0.1516E+001
  -8.6009    0.1468E+001
  -8.5934    0.1424E+001
  -8.5859    0.1384E+001
  -8.5784    0.1347E+001
  -8.5709    0.1313E+001
  -8.5634    0.1282E+001
  -8.5559    0.1253E+001
  -8.5484    0.1227E+001
  -8.5409    0.1202E+001
  -8.5334    0.1179E+001
  -8.5259    0.1159E+001
  -8.5184    0.1142E+001
  -8.5109    0.1129E+001
  -8.5034    0.1119E+001
  -8.4959    0.1113E+001
  -8.4884    0.1113E+001
  -8.4809    0.1117E+001
  -8.4734    0.1127E+001
  -8.4659    0.1141E+001
  -8.4584    0.1161E+001
  -8.4509    0.1185E+001
  -8.4434    0.1214E+001
  -8.4359    0.1245E+001
  -8.4284    0.1279E+001
  -8.4209    0.1315E+001
  -8.4134    0.1350E+001
  -8.4059    0.1386E+001
  -8.3983    0.1419E+001
  -8.3908    0.1451E+001
  -8.3833    0.1479E+001
  -8.3758    0.1503E+001
  -8.3683    0.1523E+001
  -8.3608    0.1539E+001
  -8.3533    0.1549E+001
  -8.3458    0.1555E+001
  -8.3383    0.1557E+001
  -8.3308    0.1555E+001
  -8.3233    0.1549E+001
  -8.3158    0.1541E+001
  -8.3083    0.1530E+001
  -8.3008    0.1518E+001
  -8.2933    0.1505E+001
  -8.2858    0.1493E+001
  -8.2783    0.1481E+001
  -8.2708    0.1470E+001
  -8.2633    0.1460E+001
  -8.2558    0.1453E+001
  -8.2483    0.1446E+001
  -8.2408    0.1442E+001
  -8.2333    0.1438E+001
  -8.2258    0.1435E+001
  -8.2183    0.1432E+001
  -8.2108    0.1428E+001
  -8.2033    0.1423E+001
  -8.1958    0.1416E+001
  -8.1883    0.1407E+001
  -8.1808    0.1396E+001
  -8.1733    0.1381E+001
  -8.1658    0.1364E+001
  -8.1583    0.1343E+001
  -8.1508    0.1320E+001
  -8.1433    0.1294E+001
  -8.1358    0.1266E+001
  -8.1283    0.1236E+001
  -8.1208    0.1205E+001
  -8.1133    0.1173E+001
  -8.1058    0.1141E+001
  -8.0983    0.1107E+001
  -8.0908    0.1074E+001
  -8.0833    0.1040E+001
  -8.0758    0.1005E+001
  -8.0683    0.9698E+000
  -8.0608    0.9337E+000
  -8.0533    0.8964E+000
  -8.0458    0.8580E+000
  -8.0383    0.8183E+000
  -8.0308    0.7773E+000
  -8.0233    0.7350E+000
  -8.0158    0.6918E+000
  -8.0083    0.6479E+000
  -8.0008    0.6037E+000
  -7.9932    0.5599E+000
  -7.9857    0.5169E+000
  -7.9782    0.4754E+000
  -7.9707    0.4360E+000
  -7.9632    0.3993E+000
  -7.9557    0.3658E+000
  -7.9482    0.3361E+000
  -7.9407    0.3105E+000
  -7.9332    0.2893E+000
  -7.9257    0.2726E+000
  -7.9182    0.2606E+000
  -7.9107    0.2532E+000
  -7.9032    0.2502E+000
  -7.8957    0.2516E+000
  -7.8882    0.2569E+000
  -7.8807    0.2659E+000
  -7.8732    0.2782E+000
  -7.8657    0.2934E+000
  -7.8582    0.3111E+000
  -7.8507    0.3310E+000
  -7.8432    0.3526E+000
  -7.8357    0.3756E+000
  -7.8282    0.3997E+000
  -7.8207    0.4246E+000
  -7.8132    0.4500E+000
  -7.8057    0.4758E+000
  -7.7982    0.5018E+000
  -7.7907    0.5278E+000
  -7.7832    0.5538E+000
  -7.7757    0.5797E+000
  -7.7682    0.6055E+000
  -7.7607    0.6312E+000
  -7.7532    0.6566E+000
  -7.7457    0.6817E+000
  -7.7382    0.7065E+000
  -7.7307    0.7307E+000
  -7.7232    0.7543E+000
  -7.7157    0.7768E+000
  -7.7082    0.7981E+000
  -7.7007    0.8177E+000
  -7.6932    0.8352E+000
  -7.6857    0.8501E+000
  -7.6782    0.8618E+000
  -7.6707    0.8699E+000
  -7.6632    0.8739E+000
  -7.6557    0.8734E+000
  -7.6482    0.8679E+000
  -7.6407    0.8572E+000
  -7.6332    0.8413E+000
  -7.6257    0.8200E+000
  -7.6182    0.7937E+000
  -7.6107    0.7627E+000
  -7.6032    0.7274E+000
  -7.5956    0.6886E+000
  -7.5881    0.6471E+000
  -7.5806    0.6036E+000
  -7.5731    0.5592E+000
  -7.5656    0.5149E+000
  -7.5581    0.4717E+000
  -7.5506    0.4304E+000
  -7.5431    0.3920E+000
  -7.5356    0.3573E+000
  -7.5281    0.3270E+000
  -7.5206    0.3015E+000
  -7.5131    0.2813E+000
  -7.5056    0.2667E+000
  -7.4981    0.2578E+000
  -7.4906    0.2545E+000
  -7.4831    0.2566E+000
  -7.4756    0.2640E+000
  -7.4681    0.2762E+000
  -7.4606    0.2927E+000
  -7.4531    0.3131E+000
  -7.4456    0.3366E+000
  -7.4381    0.3626E+000
  -7.4306    0.3905E+000
  -7.4231    0.4197E+000
  -7.4156    0.4493E+000
  -7.4081    0.4789E+000
  -7.4006    0.5078E+000
  -7.3931    0.5355E+000
  -7.3856    0.5617E+000
  -7.3781    0.5859E+000
  -7.3706    0.6081E+000
  -7.3631    0.6280E+000
  -7.3556    0.6457E+000
  -7.3481    0.6613E+000
  -7.3406    0.6751E+000
  -7.3331    0.6873E+000
  -7.3256    0.6984E+000
  -7.3181    0.7089E+000
  -7.3106    0.7194E+000
  -7.3031    0.7305E+000
  -7.2956    0.7430E+000
  -7.2881    0.7576E+000
  -7.2806    0.7749E+000
  -7.2731    0.7959E+000
  -7.2656    0.8212E+000
  -7.2581    0.8516E+000
  -7.2506    0.8876E+000
  -7.2431    0.9299E+000
  -7.2356    0.9788E+000
  -7.2281    0.1034E+001
  -7.2206    0.1097E+001
  -7.2131    0.1166E+001
  -7.2056    0.1241E+001
  -7.1980    0.1321E+001
  -7.1905    0.1405E+001
  -7.1830    0.1491E+001
  -7.1755    0.1578E+001
  -7.1680    0.1663E+001
  -7.1605    0.1746E+001
  -7.1530    0.1823E+001
  -7.1455    0.1893E+001
  -7.1380    0.1953E+001
  -7.1305    0.2003E+001
  -7.1230    0.2040E+001
  -7.1155    0.2065E+001
  -7.1080    0.2077E+001
  -7.1005    0.2076E+001
  -7.0930    0.2063E+001
  -7.0855    0.2040E+001
  -7.0780    0.2007E+001
  -7.0705    0.1967E+001
  -7.0630    0.1921E+001
  -7.0555    0.1874E+001
  -7.0480    0.1826E+001
  -7.0405    0.1781E+001
  -7.0330    0.1740E+001
  -7.0255    0.1705E+001
  -7.0180    0.1679E+001
  -7.0105    0.1663E+001
  -7.0030    0.1657E+001
  -6.9955    0.1663E+001
  -6.9880    0.1680E+001
  -6.9805    0.1711E+001
  -6.9730    0.1753E+001
  -6.9655    0.1808E+001
  -6.9580    0.1875E+001
  -6.9505    0.1953E+001
  -6.9430    0.2042E+001
  -6.9355    0.2141E+001
  -6.9280    0.2250E+001
  -6.9205    0.2367E+001
  -6.9130    0.2491E+001
  -6.9055    0.2621E+001
  -6.8980    0.2756E+001
  -6.8905    0.2894E+001
  -6.8830    0.3034E+001
  -6.8755    0.3174E+001
  -6.8680    0.3312E+001
  -6.8605    0.3445E+001
  -6.8530    0.3573E+001
  -6.8455    0.3693E+001
  -6.8380    0.3802E+001
  -6.8305    0.3900E+001
  -6.8230    0.3985E+001
  -6.8155    0.4055E+001
  -6.8080    0.4109E+001
  -6.8005    0.4147E+001
  -6.7929    0.4169E+001
  -6.7854    0.4173E+001
  -6.7779    0.4162E+001
  -6.7704    0.4135E+001
  -6.7629    0.4094E+001
  -6.7554    0.4040E+001
  -6.7479    0.3975E+001
  -6.7404    0.3901E+001
  -6.7329    0.3820E+001
  -6.7254    0.3734E+001
  -6.7179    0.3644E+001
  -6.7104    0.3554E+001
  -6.7029    0.3464E+001
  -6.6954    0.3377E+001
  -6.6879    0.3295E+001
  -6.6804    0.3220E+001
  -6.6729    0.3151E+001
  -6.6654    0.3092E+001
  -6.6579    0.3042E+001
  -6.6504    0.3001E+001
  -6.6429    0.2971E+001
  -6.6354    0.2950E+001
  -6.6279    0.2939E+001
  -6.6204    0.2936E+001
  -6.6129    0.2940E+001
  -6.6054    0.2950E+001
  -6.5979    0.2963E+001
  -6.5904    0.2979E+001
  -6.5829    0.2995E+001
  -6.5754    0.3010E+001
  -6.5679    0.3022E+001
  -6.5604    0.3030E+001
  -6.5529    0.3032E+001
  -6.5454    0.3029E+001
  -6.5379    0.3020E+001
  -6.5304    0.3006E+001
  -6.5229    0.2988E+001
  -6.5154    0.2967E+001
  -6.5079    0.2945E+001
  -6.5004    0.2923E+001
  -6.4929    0.2905E+001
  -6.4854    0.2891E+001
  -6.4779    0.2884E+001
  -6.4704    0.2885E+001
  -6.4629    0.2896E+001
  -6.4554    0.2918E+001
  -6.4479    0.2950E+001
  -6.4404    0.2992E+001
  -6.4329    0.3042E+001
  -6.4254    0.3100E+001
  -6.4179    0.3162E+001
  -6.4104    0.3226E+001
  -6.4029    0.3288E+001
  -6.3953    0.3347E+001
  -6.3878    0.3397E+001
  -6.3803    0.3437E+001
  -6.3728    0.3463E+001
  -6.3653    0.3473E+001
  -6.3578    0.3465E+001
  -6.3503    0.3438E+001
  -6.3428    0.3392E+001
  -6.3353    0.3326E+001
  -6.3278    0.3241E+001
  -6.3203    0.3140E+001
  -6.3128    0.3023E+001
  -6.3053    0.2893E+001
  -6.2978    0.2753E+001
  -6.2903    0.2605E+001
  -6.2828    0.2454E+001
  -6.2753    0.2301E+001
  -6.2678    0.2149E+001
  -6.2603    0.2003E+001
  -6.2528    0.1863E+001
  -6.2453    0.1733E+001
  -6.2378    0.1614E+001
  -6.2303    0.1508E+001
  -6.2228    0.1416E+001
  -6.2153    0.1339E+001
  -6.2078    0.1277E+001
  -6.2003    0.1229E+001
  -6.1928    0.1196E+001
  -6.1853    0.1176E+001
  -6.1778    0.1169E+001
  -6.1703    0.1173E+001
  -6.1628    0.1187E+001
  -6.1553    0.1209E+001
  -6.1478    0.1238E+001
  -6.1403    0.1271E+001
  -6.1328    0.1308E+001
  -6.1253    0.1347E+001
  -6.1178    0.1387E+001
  -6.1103    0.1427E+001
  -6.1028    0.1466E+001
  -6.0953    0.1502E+001
  -6.0878    0.1536E+001
  -6.0803    0.1567E+001
  -6.0728    0.1594E+001
  -6.0653    0.1617E+001
  -6.0578    0.1635E+001
  -6.0503    0.1649E+001
  -6.0428    0.1658E+001
  -6.0353    0.1661E+001
  -6.0278    0.1659E+001
  -6.0203    0.1651E+001
  -6.0128    0.1638E+001
  -6.0053    0.1619E+001
  -5.9977    0.1594E+001
  -5.9902    0.1564E+001
  -5.9827    0.1528E+001
  -5.9752    0.1488E+001
  -5.9677    0.1444E+001
  -5.9602    0.1397E+001
  -5.9527    0.1346E+001
  -5.9452    0.1293E+001
  -5.9377    0.1239E+001
  -5.9302    0.1184E+001
  -5.9227    0.1129E+001
  -5.9152    0.1075E+001
  -5.9077    0.1022E+001
  -5.9002    0.9716E+000
  -5.8927    0.9233E+000
  -5.8852    0.8780E+000
  -5.8777    0.8364E+000
  -5.8702    0.7989E+000
  -5.8627    0.7662E+000
  -5.8552    0.7387E+000
  -5.8477    0.7169E+000
  -5.8402    0.7014E+000
  -5.8327    0.6926E+000
  -5.8252    0.6908E+000
  -5.8177    0.6965E+000
  -5.8102    0.7098E+000
  -5.8027    0.7307E+000
  -5.7952    0.7591E+000
  -5.7877    0.7948E+000
  -5.7802    0.8372E+000
  -5.7727    0.8857E+000
  -5.7652    0.9394E+000
  -5.7577    0.9971E+000
  -5.7502    0.1058E+001
  -5.7427    0.1120E+001
  -5.7352    0.1182E+001
  -5.7277    0.1242E+001
  -5.7202    0.1299E+001
  -5.7127    0.1351E+001
  -5.7052    0.1398E+001
  -5.6977    0.1437E+001
  -5.6902    0.1468E+001
  -5.6827    0.1490E+001
  -5.6752    0.1503E+001
  -5.6677    0.1506E+001
  -5.6602    0.1501E+001
  -5.6527    0.1487E+001
  -5.6452    0.1466E+001
  -5.6377    0.1438E+001
  -5.6302    0.1405E+001
  -5.6227    0.1369E+001
  -5.6152    0.1331E+001
  -5.6077    0.1293E+001
  -5.6002    0.1257E+001
  -5.5926    0.1223E+001
  -5.5851    0.1193E+001
  -5.5776    0.1169E+001
  -5.5701    0.1150E+001
  -5.5626    0.1137E+001
  -5.5551    0.1131E+001
  -5.5476    0.1131E+001
  -5.5401    0.1137E+001
  -5.5326    0.1148E+001
  -5.5251    0.1164E+001
  -5.5176    0.1184E+001
  -5.5101    0.1206E+001
  -5.5026    0.1231E+001
  -5.4951    0.1257E+001
  -5.4876    0.1284E+001
  -5.4801    0.1311E+001
  -5.4726    0.1338E+001
  -5.4651    0.1365E+001
  -5.4576    0.1391E+001
  -5.4501    0.1418E+001
  -5.4426    0.1445E+001
  -5.4351    0.1474E+001
  -5.4276    0.1504E+001
  -5.4201    0.1537E+001
  -5.4126    0.1572E+001
  -5.4051    0.1612E+001
  -5.3976    0.1654E+001
  -5.3901    0.1701E+001
  -5.3826    0.1752E+001
  -5.3751    0.1806E+001
  -5.3676    0.1862E+001
  -5.3601    0.1920E+001
  -5.3526    0.1979E+001
  -5.3451    0.2035E+001
  -5.3376    0.2089E+001
  -5.3301    0.2137E+001
  -5.3226    0.2177E+001
  -5.3151    0.2209E+001
  -5.3076    0.2230E+001
  -5.3001    0.2238E+001
  -5.2926    0.2233E+001
  -5.2851    0.2212E+001
  -5.2776    0.2177E+001
  -5.2701    0.2127E+001
  -5.2626    0.2062E+001
  -5.2551    0.1984E+001
  -5.2476    0.1894E+001
  -5.2401    0.1793E+001
  -5.2326    0.1684E+001
  -5.2251    0.1568E+001
  -5.2176    0.1449E+001
  -5.2101    0.1329E+001
  -5.2026    0.1209E+001
  -5.1950    0.1092E+001
  -5.1875    0.9799E+000
  -5.1800    0.8744E+000
  -5.1725    0.7766E+000
  -5.1650    0.6876E+000
  -5.1575    0.6080E+000
  -5.1500    0.5381E+000
  -5.1425    0.4780E+000
  -5.1350    0.4274E+000
  -5.1275    0.3859E+000
  -5.1200    0.3528E+000
  -5.1125    0.3275E+000
  -5.1050    0.3092E+000
  -5.0975    0.2970E+000
  -5.0900    0.2901E+000
  -5.0825    0.2878E+000
  -5.0750    0.2893E+000
  -5.0675    0.2940E+000
  -5.0600    0.3015E+000
  -5.0525    0.3114E+000
  -5.0450    0.3234E+000
  -5.0375    0.3373E+000
  -5.0300    0.3531E+000
  -5.0225    0.3708E+000
  -5.0150    0.3905E+000
  -5.0075    0.4123E+000
  -5.0000    0.4363E+000
  -4.9925    0.4628E+000
  -4.9850    0.4917E+000
  -4.9775    0.5231E+000
  -4.9700    0.5570E+000
  -4.9625    0.5931E+000
  -4.9550    0.6312E+000
  -4.9475    0.6708E+000
  -4.9400    0.7115E+000
  -4.9325    0.7526E+000
  -4.9250    0.7932E+000
  -4.9175    0.8327E+000
  -4.9100    0.8702E+000
  -4.9025    0.9048E+000
  -4.8950    0.9356E+000
  -4.8875    0.9621E+000
  -4.8800    0.9834E+000
  -4.8725    0.9992E+000
  -4.8650    0.1009E+001
  -4.8575    0.1013E+001
  -4.8500    0.1011E+001
  -4.8425    0.1004E+001
  -4.8350    0.9910E+000
  -4.8275    0.9738E+000
  -4.8200    0.9528E+000
  -4.8125    0.9288E+000
  -4.8050    0.9028E+000
  -4.7974    0.8754E+000
  -4.7899    0.8476E+000
  -4.7824    0.8199E+000
  -4.7749    0.7930E+000
  -4.7674    0.7672E+000
  -4.7599    0.7427E+000
  -4.7524    0.7198E+000
  -4.7449    0.6982E+000
  -4.7374    0.6778E+000
  -4.7299    0.6584E+000
  -4.7224    0.6397E+000
  -4.7149    0.6211E+000
  -4.7074    0.6025E+000
  -4.6999    0.5835E+000
  -4.6924    0.5639E+000
  -4.6849    0.5436E+000
  -4.6774    0.5226E+000
  -4.6699    0.5010E+000
  -4.6624    0.4789E+000
  -4.6549    0.4568E+000
  -4.6474    0.4351E+000
  -4.6399    0.4142E+000
  -4.6324    0.3947E+000
  -4.6249    0.3773E+000
  -4.6174    0.3625E+000
  -4.6099    0.3510E+000
  -4.6024    0.3434E+000
  -4.5949    0.3403E+000
  -4.5874    0.3422E+000
  -4.5799    0.3496E+000
  -4.5724    0.3631E+000
  -4.5649    0.3829E+000
  -4.5574    0.4094E+000
  -4.5499    0.4428E+000
  -4.5424    0.4832E+000
  -4.5349    0.5306E+000
  -4.5274    0.5851E+000
  -4.5199    0.6463E+000
  -4.5124    0.7139E+000
  -4.5049    0.7874E+000
  -4.4974    0.8663E+000
  -4.4899    0.9498E+000
  -4.4824    0.1037E+001
  -4.4749    0.1127E+001
  -4.4674    0.1218E+001
  -4.4599    0.1310E+001
  -4.4524    0.1402E+001
  -4.4449    0.1491E+001
  -4.4374    0.1578E+001
  -4.4299    0.1660E+001
  -4.4224    0.1738E+001
  -4.4149    0.1810E+001
  -4.4074    0.1876E+001
  -4.3998    0.1935E+001
  -4.3923    0.1988E+001
  -4.3848    0.2035E+001
  -4.3773    0.2075E+001
  -4.3698    0.2110E+001
  -4.3623    0.2140E+001
  -4.3548    0.2166E+001
  -4.3473    0.2188E+001
  -4.3398    0.2208E+001
  -4.3323    0.2227E+001
  -4.3248    0.2244E+001
  -4.3173    0.2262E+001
  -4.3098    0.2280E+001
  -4.3023    0.2299E+001
  -4.2948    0.2320E+001
  -4.2873    0.2343E+001
  -4.2798    0.2367E+001
  -4.2723    0.2393E+001
  -4.2648    0.2420E+001
  -4.2573    0.2448E+001
  -4.2498    0.2477E+001
  -4.2423    0.2505E+001
  -4.2348    0.2533E+001
  -4.2273    0.2560E+001
  -4.2198    0.2585E+001
  -4.2123    0.2608E+001
  -4.2048    0.2628E+001
  -4.1973    0.2646E+001
  -4.1898    0.2661E+001
  -4.1823    0.2673E+001
  -4.1748    0.2684E+001
  -4.1673    0.2693E+001
  -4.1598    0.2701E+001
  -4.1523    0.2709E+001
  -4.1448    0.2719E+001
  -4.1373    0.2732E+001
  -4.1298    0.2748E+001
  -4.1223    0.2768E+001
  -4.1148    0.2795E+001
  -4.1073    0.2828E+001
  -4.0998    0.2868E+001
  -4.0923    0.2916E+001
  -4.0848    0.2972E+001
  -4.0773    0.3036E+001
  -4.0698    0.3107E+001
  -4.0623    0.3185E+001
  -4.0548    0.3269E+001
  -4.0473    0.3358E+001
  -4.0398    0.3450E+001
  -4.0323    0.3543E+001
  -4.0248    0.3636E+001
  -4.0173    0.3728E+001
  -4.0098    0.3815E+001
  -4.0023    0.3898E+001
  -3.9947    0.3974E+001
  -3.9872    0.4041E+001
  -3.9797    0.4098E+001
  -3.9722    0.4144E+001
  -3.9647    0.4178E+001
  -3.9572    0.4200E+001
  -3.9497    0.4209E+001
  -3.9422    0.4204E+001
  -3.9347    0.4187E+001
  -3.9272    0.4157E+001
  -3.9197    0.4117E+001
  -3.9122    0.4066E+001
  -3.9047    0.4007E+001
  -3.8972    0.3942E+001
  -3.8897    0.3872E+001
  -3.8822    0.3799E+001
  -3.8747    0.3726E+001
  -3.8672    0.3655E+001
  -3.8597    0.3587E+001
  -3.8522    0.3523E+001
  -3.8447    0.3466E+001
  -3.8372    0.3415E+001
  -3.8297    0.3371E+001
  -3.8222    0.3334E+001
  -3.8147    0.3304E+001
  -3.8072    0.3279E+001
  -3.7997    0.3258E+001
  -3.7922    0.3241E+001
  -3.7847    0.3225E+001
  -3.7772    0.3210E+001
  -3.7697    0.3193E+001
  -3.7622    0.3174E+001
  -3.7547    0.3152E+001
  -3.7472    0.3125E+001
  -3.7397    0.3094E+001
  -3.7322    0.3058E+001
  -3.7247    0.3019E+001
  -3.7172    0.2976E+001
  -3.7097    0.2931E+001
  -3.7022    0.2884E+001
  -3.6947    0.2838E+001
  -3.6872    0.2793E+001
  -3.6797    0.2752E+001
  -3.6722    0.2716E+001
  -3.6647    0.2687E+001
  -3.6572    0.2666E+001
  -3.6497    0.2654E+001
  -3.6422    0.2653E+001
  -3.6347    0.2663E+001
  -3.6272    0.2684E+001
  -3.6197    0.2717E+001
  -3.6122    0.2761E+001
  -3.6047    0.2815E+001
  -3.5971    0.2880E+001
  -3.5896    0.2952E+001
  -3.5821    0.3031E+001
  -3.5746    0.3115E+001
  -3.5671    0.3202E+001
  -3.5596    0.3290E+001
  -3.5521    0.3376E+001
  -3.5446    0.3459E+001
  -3.5371    0.3537E+001
  -3.5296    0.3609E+001
  -3.5221    0.3672E+001
  -3.5146    0.3726E+001
  -3.5071    0.3769E+001
  -3.4996    0.3802E+001
  -3.4921    0.3824E+001
  -3.4846    0.3835E+001
  -3.4771    0.3834E+001
  -3.4696    0.3824E+001
  -3.4621    0.3803E+001
  -3.4546    0.3773E+001
  -3.4471    0.3735E+001
  -3.4396    0.3689E+001
  -3.4321    0.3636E+001
  -3.4246    0.3578E+001
  -3.4171    0.3514E+001
  -3.4096    0.3447E+001
  -3.4021    0.3376E+001
  -3.3946    0.3304E+001
  -3.3871    0.3230E+001
  -3.3796    0.3157E+001
  -3.3721    0.3085E+001
  -3.3646    0.3015E+001
  -3.3571    0.2948E+001
  -3.3496    0.2884E+001
  -3.3421    0.2826E+001
  -3.3346    0.2772E+001
  -3.3271    0.2725E+001
  -3.3196    0.2685E+001
  -3.3121    0.2652E+001
  -3.3046    0.2626E+001
  -3.2971    0.2608E+001
  -3.2896    0.2598E+001
  -3.2821    0.2596E+001
  -3.2746    0.2601E+001
  -3.2671    0.2613E+001
  -3.2596    0.2631E+001
  -3.2521    0.2655E+001
  -3.2446    0.2683E+001
  -3.2371    0.2715E+001
  -3.2296    0.2750E+001
  -3.2221    0.2786E+001
  -3.2146    0.2823E+001
  -3.2071    0.2860E+001
  -3.1995    0.2896E+001
  -3.1920    0.2930E+001
  -3.1845    0.2963E+001
  -3.1770    0.2993E+001
  -3.1695    0.3021E+001
  -3.1620    0.3046E+001
  -3.1545    0.3070E+001
  -3.1470    0.3091E+001
  -3.1395    0.3111E+001
  -3.1320    0.3130E+001
  -3.1245    0.3148E+001
  -3.1170    0.3166E+001
  -3.1095    0.3185E+001
  -3.1020    0.3205E+001
  -3.0945    0.3226E+001
  -3.0870    0.3249E+001
  -3.0795    0.3275E+001
  -3.0720    0.3304E+001
  -3.0645    0.3336E+001
  -3.0570    0.3373E+001
  -3.0495    0.3413E+001
  -3.0420    0.3457E+001
  -3.0345    0.3505E+001
  -3.0270    0.3557E+001
  -3.0195    0.3612E+001
  -3.0120    0.3670E+001
  -3.0045    0.3729E+001
  -2.9970    0.3789E+001
  -2.9895    0.3848E+001
  -2.9820    0.3906E+001
  -2.9745    0.3960E+001
  -2.9670    0.4010E+001
  -2.9595    0.4055E+001
  -2.9520    0.4094E+001
  -2.9445    0.4127E+001
  -2.9370    0.4153E+001
  -2.9295    0.4174E+001
  -2.9220    0.4189E+001
  -2.9145    0.4200E+001
  -2.9070    0.4209E+001
  -2.8995    0.4217E+001
  -2.8920    0.4225E+001
  -2.8845    0.4236E+001
  -2.8770    0.4251E+001
  -2.8695    0.4272E+001
  -2.8620    0.4299E+001
  -2.8545    0.4334E+001
  -2.8470    0.4376E+001
  -2.8395    0.4427E+001
  -2.8320    0.4484E+001
  -2.8245    0.4547E+001
  -2.8170    0.4614E+001
  -2.8095    0.4683E+001
  -2.8020    0.4754E+001
  -2.7944    0.4823E+001
  -2.7869    0.4889E+001
  -2.7794    0.4951E+001
  -2.7719    0.5006E+001
  -2.7644    0.5055E+001
  -2.7569    0.5097E+001
  -2.7494    0.5132E+001
  -2.7419    0.5159E+001
  -2.7344    0.5181E+001
  -2.7269    0.5197E+001
  -2.7194    0.5209E+001
  -2.7119    0.5219E+001
  -2.7044    0.5228E+001
  -2.6969    0.5236E+001
  -2.6894    0.5244E+001
  -2.6819    0.5253E+001
  -2.6744    0.5263E+001
  -2.6669    0.5274E+001
  -2.6594    0.5285E+001
  -2.6519    0.5294E+001
  -2.6444    0.5301E+001
  -2.6369    0.5303E+001
  -2.6294    0.5300E+001
  -2.6219    0.5289E+001
  -2.6144    0.5270E+001
  -2.6069    0.5239E+001
  -2.5994    0.5198E+001
  -2.5919    0.5144E+001
  -2.5844    0.5078E+001
  -2.5769    0.5000E+001
  -2.5694    0.4910E+001
  -2.5619    0.4810E+001
  -2.5544    0.4701E+001
  -2.5469    0.4584E+001
  -2.5394    0.4462E+001
  -2.5319    0.4338E+001
  -2.5244    0.4213E+001
  -2.5169    0.4091E+001
  -2.5094    0.3973E+001
  -2.5019    0.3861E+001
  -2.4944    0.3758E+001
  -2.4869    0.3666E+001
  -2.4794    0.3584E+001
  -2.4719    0.3514E+001
  -2.4644    0.3457E+001
  -2.4569    0.3411E+001
  -2.4494    0.3377E+001
  -2.4419    0.3353E+001
  -2.4344    0.3337E+001
  -2.4269    0.3329E+001
  -2.4194    0.3326E+001
  -2.4119    0.3328E+001
  -2.4044    0.3332E+001
  -2.3968    0.3337E+001
  -2.3893    0.3343E+001
  -2.3818    0.3349E+001
  -2.3743    0.3354E+001
  -2.3668    0.3360E+001
  -2.3593    0.3367E+001
  -2.3518    0.3375E+001
  -2.3443    0.3387E+001
  -2.3368    0.3403E+001
  -2.3293    0.3425E+001
  -2.3218    0.3455E+001
  -2.3143    0.3495E+001
  -2.3068    0.3544E+001
  -2.2993    0.3604E+001
  -2.2918    0.3674E+001
  -2.2843    0.3756E+001
  -2.2768    0.3847E+001
  -2.2693    0.3946E+001
  -2.2618    0.4052E+001
  -2.2543    0.4163E+001
  -2.2468    0.4276E+001
  -2.2393    0.4388E+001
  -2.2318    0.4496E+001
  -2.2243    0.4599E+001
  -2.2168    0.4692E+001
  -2.2093    0.4774E+001
  -2.2018    0.4844E+001
  -2.1943    0.4898E+001
  -2.1868    0.4936E+001
  -2.1793    0.4958E+001
  -2.1718    0.4963E+001
  -2.1643    0.4951E+001
  -2.1568    0.4923E+001
  -2.1493    0.4881E+001
  -2.1418    0.4825E+001
  -2.1343    0.4757E+001
  -2.1268    0.4680E+001
  -2.1193    0.4594E+001
  -2.1118    0.4502E+001
  -2.1043    0.4406E+001
  -2.0968    0.4306E+001
  -2.0893    0.4206E+001
  -2.0818    0.4105E+001
  -2.0743    0.4005E+001
  -2.0668    0.3906E+001
  -2.0593    0.3810E+001
  -2.0518    0.3717E+001
  -2.0443    0.3626E+001
  -2.0368    0.3539E+001
  -2.0293    0.3455E+001
  -2.0218    0.3376E+001
  -2.0143    0.3300E+001
  -2.0068    0.3228E+001
  -1.9992    0.3162E+001
  -1.9917    0.3102E+001
  -1.9842    0.3048E+001
  -1.9767    0.3001E+001
  -1.9692    0.2964E+001
  -1.9617    0.2935E+001
  -1.9542    0.2918E+001
  -1.9467    0.2912E+001
  -1.9392    0.2918E+001
  -1.9317    0.2938E+001
  -1.9242    0.2971E+001
  -1.9167    0.3019E+001
  -1.9092    0.3081E+001
  -1.9017    0.3156E+001
  -1.8942    0.3245E+001
  -1.8867    0.3346E+001
  -1.8792    0.3457E+001
  -1.8717    0.3576E+001
  -1.8642    0.3703E+001
  -1.8567    0.3832E+001
  -1.8492    0.3963E+001
  -1.8417    0.4092E+001
  -1.8342    0.4216E+001
  -1.8267    0.4332E+001
  -1.8192    0.4436E+001
  -1.8117    0.4526E+001
  -1.8042    0.4599E+001
  -1.7967    0.4654E+001
  -1.7892    0.4690E+001
  -1.7817    0.4705E+001
  -1.7742    0.4699E+001
  -1.7667    0.4674E+001
  -1.7592    0.4630E+001
  -1.7517    0.4569E+001
  -1.7442    0.4495E+001
  -1.7367    0.4409E+001
  -1.7292    0.4316E+001
  -1.7217    0.4217E+001
  -1.7142    0.4117E+001
  -1.7067    0.4019E+001
  -1.6992    0.3925E+001
  -1.6917    0.3838E+001
  -1.6842    0.3759E+001
  -1.6767    0.3691E+001
  -1.6692    0.3634E+001
  -1.6617    0.3588E+001
  -1.6542    0.3554E+001
  -1.6467    0.3531E+001
  -1.6392    0.3518E+001
  -1.6317    0.3514E+001
  -1.6242    0.3518E+001
  -1.6167    0.3528E+001
  -1.6092    0.3542E+001
  -1.6017    0.3560E+001
  -1.5941    0.3580E+001
  -1.5866    0.3600E+001
  -1.5791    0.3620E+001
  -1.5716    0.3638E+001
  -1.5641    0.3654E+001
  -1.5566    0.3668E+001
  -1.5491    0.3679E+001
  -1.5416    0.3686E+001
  -1.5341    0.3690E+001
  -1.5266    0.3690E+001
  -1.5191    0.3687E+001
  -1.5116    0.3681E+001
  -1.5041    0.3671E+001
  -1.4966    0.3658E+001
  -1.4891    0.3642E+001
  -1.4816    0.3623E+001
  -1.4741    0.3601E+001
  -1.4666    0.3576E+001
  -1.4591    0.3549E+001
  -1.4516    0.3519E+001
  -1.4441    0.3487E+001
  -1.4366    0.3452E+001
  -1.4291    0.3415E+001
  -1.4216    0.3377E+001
  -1.4141    0.3337E+001
  -1.4066    0.3295E+001
  -1.3991    0.3253E+001
  -1.3916    0.3209E+001
  -1.3841    0.3166E+001
  -1.3766    0.3122E+001
  -1.3691    0.3078E+001
  -1.3616    0.3035E+001
  -1.3541    0.2992E+001
  -1.3466    0.2951E+001
  -1.3391    0.2911E+001
  -1.3316    0.2873E+001
  -1.3241    0.2836E+001
  -1.3166    0.2800E+001
  -1.3091    0.2767E+001
  -1.3016    0.2734E+001
  -1.2941    0.2703E+001
  -1.2866    0.2674E+001
  -1.2791    0.2645E+001
  -1.2716    0.2618E+001
  -1.2641    0.2591E+001
  -1.2566    0.2566E+001
  -1.2491    0.2541E+001
  -1.2416    0.2516E+001
  -1.2341    0.2493E+001
  -1.2266    0.2470E+001
  -1.2191    0.2449E+001
  -1.2116    0.2428E+001
  -1.2041    0.2409E+001
  -1.1965    0.2392E+001
  -1.1890    0.2376E+001
  -1.1815    0.2362E+001
  -1.1740    0.2350E+001
  -1.1665    0.2340E+001
  -1.1590    0.2331E+001
  -1.1515    0.2324E+001
  -1.1440    0.2318E+001
  -1.1365    0.2313E+001
  -1.1290    0.2308E+001
  -1.1215    0.2303E+001
  -1.1140    0.2297E+001
  -1.1065    0.2290E+001
  -1.0990    0.2282E+001
  -1.0915    0.2271E+001
  -1.0840    0.2258E+001
  -1.0765    0.2242E+001
  -1.0690    0.2224E+001
  -1.0615    0.2204E+001
  -1.0540    0.2182E+001
  -1.0465    0.2158E+001
  -1.0390    0.2133E+001
  -1.0315    0.2108E+001
  -1.0240    0.2083E+001
  -1.0165    0.2060E+001
  -1.0090    0.2039E+001
  -1.0015    0.2021E+001
  -0.9940    0.2006E+001
  -0.9865    0.1995E+001
  -0.9790    0.1987E+001
  -0.9715    0.1984E+001
  -0.9640    0.1984E+001
  -0.9565    0.1987E+001
  -0.9490    0.1993E+001
  -0.9415    0.2002E+001
  -0.9340    0.2012E+001
  -0.9265    0.2024E+001
  -0.9190    0.2037E+001
  -0.9115    0.2051E+001
  -0.9040    0.2064E+001
  -0.8965    0.2078E+001
  -0.8890    0.2093E+001
  -0.8815    0.2107E+001
  -0.8740    0.2122E+001
  -0.8665    0.2137E+001
  -0.8590    0.2152E+001
  -0.8515    0.2168E+001
  -0.8440    0.2184E+001
  -0.8365    0.2199E+001
  -0.8290    0.2214E+001
  -0.8215    0.2227E+001
  -0.8140    0.2238E+001
  -0.8065    0.2246E+001
  -0.7989    0.2249E+001
  -0.7914    0.2247E+001
  -0.7839    0.2240E+001
  -0.7764    0.2226E+001
  -0.7689    0.2204E+001
  -0.7614    0.2176E+001
  -0.7539    0.2139E+001
  -0.7464    0.2095E+001
  -0.7389    0.2045E+001
  -0.7314    0.1988E+001
  -0.7239    0.1925E+001
  -0.7164    0.1858E+001
  -0.7089    0.1788E+001
  -0.7014    0.1716E+001
  -0.6939    0.1643E+001
  -0.6864    0.1570E+001
  -0.6789    0.1498E+001
  -0.6714    0.1429E+001
  -0.6639    0.1363E+001
  -0.6564    0.1301E+001
  -0.6489    0.1244E+001
  -0.6414    0.1192E+001
  -0.6339    0.1145E+001
  -0.6264    0.1104E+001
  -0.6189    0.1069E+001
  -0.6114    0.1040E+001
  -0.6039    0.1017E+001
  -0.5964    0.9994E+000
  -0.5889    0.9867E+000
  -0.5814    0.9785E+000
  -0.5739    0.9743E+000
  -0.5664    0.9732E+000
  -0.5589    0.9746E+000
  -0.5514    0.9775E+000
  -0.5439    0.9812E+000
  -0.5364    0.9846E+000
  -0.5289    0.9871E+000
  -0.5214    0.9879E+000
  -0.5139    0.9862E+000
  -0.5064    0.9817E+000
  -0.4989    0.9737E+000
  -0.4914    0.9622E+000
  -0.4839    0.9471E+000
  -0.4764    0.9284E+000
  -0.4689    0.9064E+000
  -0.4614    0.8814E+000
  -0.4539    0.8540E+000
  -0.4464    0.8246E+000
  -0.4389    0.7939E+000
  -0.4314    0.7625E+000
  -0.4239    0.7309E+000
  -0.4164    0.6999E+000
  -0.4089    0.6699E+000
  -0.4014    0.6413E+000
  -0.3938    0.6146E+000
  -0.3863    0.5901E+000
  -0.3788    0.5679E+000
  -0.3713    0.5482E+000
  -0.3638    0.5311E+000
  -0.3563    0.5166E+000
  -0.3488    0.5045E+000
  -0.3413    0.4950E+000
  -0.3338    0.4877E+000
  -0.3263    0.4827E+000
  -0.3188    0.4796E+000
  -0.3113    0.4784E+000
  -0.3038    0.4789E+000
  -0.2963    0.4810E+000
  -0.2888    0.4843E+000
  -0.2813    0.4889E+000
  -0.2738    0.4944E+000
  -0.2663    0.5007E+000
  -0.2588    0.5076E+000
  -0.2513    0.5149E+000
  -0.2438    0.5223E+000
  -0.2363    0.5295E+000
  -0.2288    0.5364E+000
  -0.2213    0.5427E+000
  -0.2138    0.5480E+000
  -0.2063    0.5521E+000
  -0.1988    0.5548E+000
  -0.1913    0.5559E+000
  -0.1838    0.5551E+000
  -0.1763    0.5523E+000
  -0.1688    0.5475E+000
  -0.1613    0.5406E+000
  -0.1538    0.5317E+000
  -0.1463    0.5209E+000
  -0.1388    0.5084E+000
  -0.1313    0.4944E+000
  -0.1238    0.4791E+000
  -0.1163    0.4628E+000
  -0.1088    0.4458E+000
  -0.1013    0.4285E+000
  -0.0938    0.4110E+000
  -0.0863    0.3937E+000
  -0.0788    0.3766E+000
  -0.0713    0.3600E+000
  -0.0638    0.3439E+000
  -0.0563    0.3284E+000
  -0.0488    0.3134E+000
  -0.0413    0.2988E+000
  -0.0338    0.2847E+000
  -0.0263    0.2708E+000
  -0.0188    0.2571E+000
  -0.0113    0.2435E+000
  -0.0038    0.2299E+000
   0.0038    0.2162E+000
   0.0113    0.2024E+000
   0.0188    0.1885E+000
   0.0263    0.1746E+000
   0.0338    0.1606E+000
   0.0413    0.1468E+000
   0.0488    0.1331E+000
   0.0563    0.1198E+000
   0.0638    0.1069E+000
   0.0713    0.9457E-001
   0.0788    0.8292E-001
   0.0863    0.7203E-001
   0.0938    0.6199E-001
   0.1013    0.5284E-001
   0.1088    0.4459E-001
   0.1163    0.3726E-001
   0.1238    0.3081E-001
   0.1313    0.2523E-001
   0.1388    0.2044E-001
   0.1463    0.1639E-001
   0.1538    0.1300E-001
   0.1613    0.1021E-001
   0.1688    0.7942E-002
   0.1763    0.6117E-002
   0.1838    0.4673E-002
   0.1913    0.3550E-002
   0.1988    0.2693E-002
   0.2063    0.2059E-002
   0.2138    0.1611E-002
   0.2213    0.1320E-002
   0.2288    0.1167E-002
   0.2363    0.1138E-002
   0.2438    0.1231E-002
   0.2513    0.1448E-002
   0.2588    0.1800E-002
   0.2663    0.2306E-002
   0.2738    0.2991E-002
   0.2813    0.3888E-002
   0.2888    0.5037E-002
   0.2963    0.6485E-002
   0.3038    0.8287E-002
   0.3113    0.1050E-001
   0.3188    0.1320E-001
   0.3263    0.1645E-001
   0.3338    0.2032E-001
   0.3413    0.2489E-001
   0.3488    0.3023E-001
   0.3563    0.3641E-001
   0.3638    0.4350E-001
   0.3713    0.5155E-001
   0.3788    0.6060E-001
   0.3863    0.7066E-001
   0.3938    0.8176E-001
   0.4014    0.9385E-001
   0.4089    0.1069E+000
   0.4164    0.1208E+000
   0.4239    0.1355E+000
   0.4314    0.1509E+000
   0.4389    0.1668E+000
   0.4464    0.1830E+000
   0.4539    0.1994E+000
   0.4614    0.2158E+000
   0.4689    0.2319E+000
   0.4764    0.2478E+000
   0.4839    0.2631E+000
   0.4914    0.2779E+000
   0.4989    0.2921E+000
   0.5064    0.3055E+000
   0.5139    0.3184E+000
   0.5214    0.3307E+000
   0.5289    0.3425E+000
   0.5364    0.3540E+000
   0.5439    0.3654E+000
   0.5514    0.3768E+000
   0.5589    0.3884E+000
   0.5664    0.4003E+000
   0.5739    0.4126E+000
   0.5814    0.4254E+000
   0.5889    0.4386E+000
   0.5964    0.4521E+000
   0.6039    0.4659E+000
   0.6114    0.4796E+000
   0.6189    0.4932E+000
   0.6264    0.5063E+000
   0.6339    0.5186E+000
   0.6414    0.5299E+000
   0.6489    0.5398E+000
   0.6564    0.5482E+000
   0.6639    0.5550E+000
   0.6714    0.5599E+000
   0.6789    0.5631E+000
   0.6864    0.5645E+000
   0.6939    0.5644E+000
   0.7014    0.5631E+000
   0.7089    0.5608E+000
   0.7164    0.5580E+000
   0.7239    0.5552E+000
   0.7314    0.5529E+000
   0.7389    0.5515E+000
   0.7464    0.5517E+000
   0.7539    0.5540E+000
   0.7614    0.5588E+000
   0.7689    0.5665E+000
   0.7764    0.5776E+000
   0.7839    0.5923E+000
   0.7914    0.6107E+000
   0.7989    0.6330E+000
   0.8065    0.6590E+000
   0.8140    0.6888E+000
   0.8215    0.7221E+000
   0.8290    0.7585E+000
   0.8365    0.7977E+000
   0.8440    0.8390E+000
   0.8515    0.8820E+000
   0.8590    0.9260E+000
   0.8665    0.9702E+000
   0.8740    0.1014E+001
   0.8815    0.1056E+001
   0.8890    0.1096E+001
   0.8965    0.1133E+001
   0.9040    0.1166E+001
   0.9115    0.1195E+001
   0.9190    0.1218E+001
   0.9265    0.1235E+001
   0.9340    0.1245E+001
   0.9415    0.1249E+001
   0.9490    0.1246E+001
   0.9565    0.1235E+001
   0.9640    0.1218E+001
   0.9715    0.1194E+001
   0.9790    0.1165E+001
   0.9865    0.1131E+001
   0.9940    0.1093E+001
   1.0015    0.1052E+001
   1.0090    0.1010E+001
   1.0165    0.9673E+000
   1.0240    0.9253E+000
   1.0315    0.8851E+000
   1.0390    0.8479E+000
   1.0465    0.8144E+000
   1.0540    0.7853E+000
   1.0615    0.7611E+000
   1.0690    0.7421E+000
   1.0765    0.7284E+000
   1.0840    0.7200E+000
   1.0915    0.7166E+000
   1.0990    0.7180E+000
   1.1065    0.7236E+000
   1.1140    0.7331E+000
   1.1215    0.7460E+000
   1.1290    0.7618E+000
   1.1365    0.7800E+000
   1.1440    0.8003E+000
   1.1515    0.8222E+000
   1.1590    0.8455E+000
   1.1665    0.8697E+000
   1.1740    0.8948E+000
   1.1815    0.9204E+000
   1.1890    0.9463E+000
   1.1965    0.9722E+000
   1.2041    0.9981E+000
   1.2116    0.1024E+001
   1.2191    0.1049E+001
   1.2266    0.1073E+001
   1.2341    0.1096E+001
   1.2416    0.1119E+001
   1.2491    0.1140E+001
   1.2566    0.1161E+001
   1.2641    0.1180E+001
   1.2716    0.1199E+001
   1.2791    0.1217E+001
   1.2866    0.1235E+001
   1.2941    0.1253E+001
   1.3016    0.1270E+001
   1.3091    0.1288E+001
   1.3166    0.1307E+001
   1.3241    0.1326E+001
   1.3316    0.1346E+001
   1.3391    0.1368E+001
   1.3466    0.1391E+001
   1.3541    0.1416E+001
   1.3616    0.1443E+001
   1.3691    0.1471E+001
   1.3766    0.1502E+001
   1.3841    0.1535E+001
   1.3916    0.1570E+001
   1.3991    0.1607E+001
   1.4066    0.1646E+001
   1.4141    0.1687E+001
   1.4216    0.1730E+001
   1.4291    0.1773E+001
   1.4366    0.1817E+001
   1.4441    0.1862E+001
   1.4516    0.1906E+001
   1.4591    0.1949E+001
   1.4666    0.1991E+001
   1.4741    0.2031E+001
   1.4816    0.2067E+001
   1.4891    0.2100E+001
   1.4966    0.2129E+001
   1.5041    0.2154E+001
   1.5116    0.2174E+001
   1.5191    0.2189E+001
   1.5266    0.2199E+001
   1.5341    0.2204E+001
   1.5416    0.2204E+001
   1.5491    0.2199E+001
   1.5566    0.2191E+001
   1.5641    0.2178E+001
   1.5716    0.2163E+001
   1.5791    0.2145E+001
   1.5866    0.2124E+001
   1.5941    0.2103E+001
   1.6017    0.2080E+001
   1.6092    0.2056E+001
   1.6167    0.2032E+001
   1.6242    0.2008E+001
   1.6317    0.1984E+001
   1.6392    0.1961E+001
   1.6467    0.1938E+001
   1.6542    0.1915E+001
   1.6617    0.1892E+001
   1.6692    0.1871E+001
   1.6767    0.1849E+001
   1.6842    0.1828E+001
   1.6917    0.1808E+001
   1.6992    0.1788E+001
   1.7067    0.1770E+001
   1.7142    0.1753E+001
   1.7217    0.1737E+001
   1.7292    0.1724E+001
   1.7367    0.1713E+001
   1.7442    0.1705E+001
   1.7517    0.1700E+001
   1.7592    0.1698E+001
   1.7667    0.1700E+001
   1.7742    0.1705E+001
   1.7817    0.1712E+001
   1.7892    0.1722E+001
   1.7967    0.1734E+001
   1.8042    0.1747E+001
   1.8117    0.1761E+001
   1.8192    0.1773E+001
   1.8267    0.1785E+001
   1.8342    0.1794E+001
   1.8417    0.1801E+001
   1.8492    0.1804E+001
   1.8567    0.1804E+001
   1.8642    0.1801E+001
   1.8717    0.1795E+001
   1.8792    0.1786E+001
   1.8867    0.1775E+001
   1.8942    0.1764E+001
   1.9017    0.1752E+001
   1.9092    0.1742E+001
   1.9167    0.1735E+001
   1.9242    0.1731E+001
   1.9317    0.1733E+001
   1.9392    0.1740E+001
   1.9467    0.1755E+001
   1.9542    0.1776E+001
   1.9617    0.1806E+001
   1.9692    0.1844E+001
   1.9767    0.1890E+001
   1.9842    0.1944E+001
   1.9917    0.2005E+001
   1.9992    0.2073E+001
   2.0068    0.2146E+001
   2.0143    0.2223E+001
   2.0218    0.2302E+001
   2.0293    0.2383E+001
   2.0368    0.2464E+001
   2.0443    0.2542E+001
   2.0518    0.2617E+001
   2.0593    0.2686E+001
   2.0668    0.2750E+001
   2.0743    0.2806E+001
   2.0818    0.2854E+001
   2.0893    0.2893E+001
   2.0968    0.2924E+001
   2.1043    0.2947E+001
   2.1118    0.2963E+001
   2.1193    0.2971E+001
   2.1268    0.2974E+001
   2.1343    0.2971E+001
   2.1418    0.2966E+001
   2.1493    0.2958E+001
   2.1568    0.2949E+001
   2.1643    0.2940E+001
   2.1718    0.2931E+001
   2.1793    0.2924E+001
   2.1868    0.2919E+001
   2.1943    0.2915E+001
   2.2018    0.2914E+001
   2.2093    0.2914E+001
   2.2168    0.2916E+001
   2.2243    0.2920E+001
   2.2318    0.2924E+001
   2.2393    0.2929E+001
   2.2468    0.2935E+001
   2.2543    0.2942E+001
   2.2618    0.2949E+001
   2.2693    0.2957E+001
   2.2768    0.2966E+001
   2.2843    0.2976E+001
   2.2918    0.2988E+001
   2.2993    0.3003E+001
   2.3068    0.3020E+001
   2.3143    0.3041E+001
   2.3218    0.3066E+001
   2.3293    0.3095E+001
   2.3368    0.3130E+001
   2.3443    0.3170E+001
   2.3518    0.3215E+001
   2.3593    0.3267E+001
   2.3668    0.3325E+001
   2.3743    0.3390E+001
   2.3818    0.3461E+001
   2.3893    0.3538E+001
   2.3968    0.3622E+001
   2.4044    0.3712E+001
   2.4119    0.3806E+001
   2.4194    0.3906E+001
   2.4269    0.4010E+001
   2.4344    0.4116E+001
   2.4419    0.4224E+001
   2.4494    0.4332E+001
   2.4569    0.4439E+001
   2.4644    0.4543E+001
   2.4719    0.4642E+001
   2.4794    0.4735E+001
   2.4869    0.4820E+001
   2.4944    0.4896E+001
   2.5019    0.4961E+001
   2.5094    0.5013E+001
   2.5169    0.5053E+001
   2.5244    0.5080E+001
   2.5319    0.5093E+001
   2.5394    0.5094E+001
   2.5469    0.5082E+001
   2.5544    0.5058E+001
   2.5619    0.5024E+001
   2.5694    0.4981E+001
   2.5769    0.4931E+001
   2.5844    0.4875E+001
   2.5919    0.4815E+001
   2.5994    0.4752E+001
   2.6069    0.4689E+001
   2.6144    0.4625E+001
   2.6219    0.4563E+001
   2.6294    0.4503E+001
   2.6369    0.4446E+001
   2.6444    0.4391E+001
   2.6519    0.4341E+001
   2.6594    0.4293E+001
   2.6669    0.4250E+001
   2.6744    0.4210E+001
   2.6819    0.4173E+001
   2.6894    0.4139E+001
   2.6969    0.4109E+001
   2.7044    0.4081E+001
   2.7119    0.4056E+001
   2.7194    0.4034E+001
   2.7269    0.4014E+001
   2.7344    0.3996E+001
   2.7419    0.3979E+001
   2.7494    0.3965E+001
   2.7569    0.3951E+001
   2.7644    0.3939E+001
   2.7719    0.3927E+001
   2.7794    0.3915E+001
   2.7869    0.3903E+001
   2.7944    0.3891E+001
   2.8020    0.3879E+001
   2.8095    0.3866E+001
   2.8170    0.3852E+001
   2.8245    0.3837E+001
   2.8320    0.3822E+001
   2.8395    0.3806E+001
   2.8470    0.3789E+001
   2.8545    0.3771E+001
   2.8620    0.3752E+001
   2.8695    0.3733E+001
   2.8770    0.3712E+001
   2.8845    0.3690E+001
   2.8920    0.3667E+001
   2.8995    0.3641E+001
   2.9070    0.3614E+001
   2.9145    0.3585E+001
   2.9220    0.3553E+001
   2.9295    0.3518E+001
   2.9370    0.3481E+001
   2.9445    0.3442E+001
   2.9520    0.3400E+001
   2.9595    0.3356E+001
   2.9670    0.3310E+001
   2.9745    0.3263E+001
   2.9820    0.3217E+001
   2.9895    0.3170E+001
   2.9970    0.3125E+001
   3.0045    0.3082E+001
   3.0120    0.3042E+001
   3.0195    0.3005E+001
   3.0270    0.2974E+001
   3.0345    0.2947E+001
   3.0420    0.2926E+001
   3.0495    0.2912E+001
   3.0570    0.2904E+001
   3.0645    0.2903E+001
   3.0720    0.2910E+001
   3.0795    0.2923E+001
   3.0870    0.2943E+001
   3.0945    0.2969E+001
   3.1020    0.3002E+001
   3.1095    0.3040E+001
   3.1170    0.3082E+001
   3.1245    0.3128E+001
   3.1320    0.3177E+001
   3.1395    0.3227E+001
   3.1470    0.3277E+001
   3.1545    0.3325E+001
   3.1620    0.3370E+001
   3.1695    0.3411E+001
   3.1770    0.3447E+001
   3.1845    0.3475E+001
   3.1920    0.3496E+001
   3.1995    0.3507E+001
   3.2071    0.3510E+001
   3.2146    0.3504E+001
   3.2221    0.3490E+001
   3.2296    0.3467E+001
   3.2371    0.3438E+001
   3.2446    0.3403E+001
   3.2521    0.3364E+001
   3.2596    0.3324E+001
   3.2671    0.3283E+001
   3.2746    0.3244E+001
   3.2821    0.3208E+001
   3.2896    0.3178E+001
   3.2971    0.3154E+001
   3.3046    0.3137E+001
   3.3121    0.3128E+001
   3.3196    0.3127E+001
   3.3271    0.3134E+001
   3.3346    0.3148E+001
   3.3421    0.3169E+001
   3.3496    0.3195E+001
   3.3571    0.3225E+001
   3.3646    0.3258E+001
   3.3721    0.3292E+001
   3.3796    0.3327E+001
   3.3871    0.3361E+001
   3.3946    0.3394E+001
   3.4021    0.3425E+001
   3.4096    0.3454E+001
   3.4171    0.3482E+001
   3.4246    0.3508E+001
   3.4321    0.3534E+001
   3.4396    0.3560E+001
   3.4471    0.3587E+001
   3.4546    0.3617E+001
   3.4621    0.3651E+001
   3.4696    0.3689E+001
   3.4771    0.3733E+001
   3.4846    0.3783E+001
   3.4921    0.3841E+001
   3.4996    0.3905E+001
   3.5071    0.3976E+001
   3.5146    0.4054E+001
   3.5221    0.4139E+001
   3.5296    0.4228E+001
   3.5371    0.4321E+001
   3.5446    0.4416E+001
   3.5521    0.4512E+001
   3.5596    0.4608E+001
   3.5671    0.4700E+001
   3.5746    0.4788E+001
   3.5821    0.4870E+001
   3.5896    0.4944E+001
   3.5971    0.5009E+001
   3.6047    0.5062E+001
   3.6122    0.5105E+001
   3.6197    0.5134E+001
   3.6272    0.5151E+001
   3.6347    0.5155E+001
   3.6422    0.5146E+001
   3.6497    0.5125E+001
   3.6572    0.5091E+001
   3.6647    0.5047E+001
   3.6722    0.4993E+001
   3.6797    0.4931E+001
   3.6872    0.4862E+001
   3.6947    0.4787E+001
   3.7022    0.4708E+001
   3.7097    0.4627E+001
   3.7172    0.4546E+001
   3.7247    0.4464E+001
   3.7322    0.4385E+001
   3.7397    0.4310E+001
   3.7472    0.4239E+001
   3.7547    0.4173E+001
   3.7622    0.4115E+001
   3.7697    0.4063E+001
   3.7772    0.4019E+001
   3.7847    0.3984E+001
   3.7922    0.3957E+001
   3.7997    0.3939E+001
   3.8072    0.3929E+001
   3.8147    0.3928E+001
   3.8222    0.3934E+001
   3.8297    0.3948E+001
   3.8372    0.3969E+001
   3.8447    0.3996E+001
   3.8522    0.4029E+001
   3.8597    0.4068E+001
   3.8672    0.4111E+001
   3.8747    0.4158E+001
   3.8822    0.4209E+001
   3.8897    0.4263E+001
   3.8972    0.4321E+001
   3.9047    0.4381E+001
   3.9122    0.4444E+001
   3.9197    0.4509E+001
   3.9272    0.4576E+001
   3.9347    0.4644E+001
   3.9422    0.4713E+001
   3.9497    0.4782E+001
   3.9572    0.4849E+001
   3.9647    0.4914E+001
   3.9722    0.4976E+001
   3.9797    0.5034E+001
   3.9872    0.5085E+001
   3.9947    0.5128E+001
   4.0023    0.5163E+001
   4.0098    0.5189E+001
   4.0173    0.5203E+001
   4.0248    0.5206E+001
   4.0323    0.5198E+001
   4.0398    0.5177E+001
   4.0473    0.5144E+001
   4.0548    0.5100E+001
   4.0623    0.5044E+001
   4.0698    0.4979E+001
   4.0773    0.4905E+001
   4.0848    0.4824E+001
   4.0923    0.4737E+001
   4.0998    0.4645E+001
   4.1073    0.4551E+001
   4.1148    0.4456E+001
   4.1223    0.4362E+001
   4.1298    0.4270E+001
   4.1373    0.4181E+001
   4.1448    0.4096E+001
   4.1523    0.4016E+001
   4.1598    0.3943E+001
   4.1673    0.3875E+001
   4.1748    0.3814E+001
   4.1823    0.3759E+001
   4.1898    0.3710E+001
   4.1973    0.3667E+001
   4.2048    0.3629E+001
   4.2123    0.3595E+001
   4.2198    0.3566E+001
   4.2273    0.3539E+001
   4.2348    0.3516E+001
   4.2423    0.3495E+001
   4.2498    0.3476E+001
   4.2573    0.3458E+001
   4.2648    0.3443E+001
   4.2723    0.3430E+001
   4.2798    0.3418E+001
   4.2873    0.3409E+001
   4.2948    0.3403E+001
   4.3023    0.3400E+001
   4.3098    0.3400E+001
   4.3173    0.3404E+001
   4.3248    0.3412E+001
   4.3323    0.3424E+001
   4.3398    0.3439E+001
   4.3473    0.3459E+001
   4.3548    0.3481E+001
   4.3623    0.3505E+001
   4.3698    0.3531E+001
   4.3773    0.3558E+001
   4.3848    0.3583E+001
   4.3923    0.3607E+001
   4.3998    0.3628E+001
   4.4074    0.3644E+001
   4.4149    0.3654E+001
   4.4224    0.3658E+001
   4.4299    0.3655E+001
   4.4374    0.3645E+001
   4.4449    0.3625E+001
   4.4524    0.3598E+001
   4.4599    0.3562E+001
   4.4674    0.3519E+001
   4.4749    0.3468E+001
   4.4824    0.3410E+001
   4.4899    0.3346E+001
   4.4974    0.3277E+001
   4.5049    0.3204E+001
   4.5124    0.3128E+001
   4.5199    0.3051E+001
   4.5274    0.2973E+001
   4.5349    0.2895E+001
   4.5424    0.2818E+001
   4.5499    0.2745E+001
   4.5574    0.2674E+001
   4.5649    0.2608E+001
   4.5724    0.2548E+001
   4.5799    0.2493E+001
   4.5874    0.2444E+001
   4.5949    0.2403E+001
   4.6024    0.2369E+001
   4.6099    0.2343E+001
   4.6174    0.2324E+001
   4.6249    0.2313E+001
   4.6324    0.2309E+001
   4.6399    0.2311E+001
   4.6474    0.2319E+001
   4.6549    0.2332E+001
   4.6624    0.2348E+001
   4.6699    0.2368E+001
   4.6774    0.2388E+001
   4.6849    0.2408E+001
   4.6924    0.2427E+001
   4.6999    0.2444E+001
   4.7074    0.2457E+001
   4.7149    0.2466E+001
   4.7224    0.2470E+001
   4.7299    0.2469E+001
   4.7374    0.2462E+001
   4.7449    0.2451E+001
   4.7524    0.2436E+001
   4.7599    0.2417E+001
   4.7674    0.2395E+001
   4.7749    0.2372E+001
   4.7824    0.2348E+001
   4.7899    0.2325E+001
   4.7974    0.2304E+001
   4.8050    0.2286E+001
   4.8125    0.2272E+001
   4.8200    0.2263E+001
   4.8275    0.2258E+001
   4.8350    0.2260E+001
   4.8425    0.2266E+001
   4.8500    0.2278E+001
   4.8575    0.2295E+001
   4.8650    0.2317E+001
   4.8725    0.2343E+001
   4.8800    0.2372E+001
   4.8875    0.2405E+001
   4.8950    0.2441E+001
   4.9025    0.2479E+001
   4.9100    0.2520E+001
   4.9175    0.2564E+001
   4.9250    0.2610E+001
   4.9325    0.2659E+001
   4.9400    0.2712E+001
   4.9475    0.2768E+001
   4.9550    0.2829E+001
   4.9625    0.2894E+001
   4.9700    0.2965E+001
   4.9775    0.3041E+001
   4.9850    0.3122E+001
   4.9925    0.3208E+001
   5.0000    0.3298E+001
   5.0075    0.3393E+001
   5.0150    0.3491E+001
   5.0225    0.3592E+001
   5.0300    0.3693E+001
   5.0375    0.3795E+001
   5.0450    0.3895E+001
   5.0525    0.3993E+001
   5.0600    0.4086E+001
   5.0675    0.4175E+001
   5.0750    0.4258E+001
   5.0825    0.4333E+001
   5.0900    0.4400E+001
   5.0975    0.4459E+001
   5.1050    0.4508E+001
   5.1125    0.4547E+001
   5.1200    0.4577E+001
   5.1275    0.4596E+001
   5.1350    0.4606E+001
   5.1425    0.4606E+001
   5.1500    0.4597E+001
   5.1575    0.4580E+001
   5.1650    0.4554E+001
   5.1725    0.4522E+001
   5.1800    0.4483E+001
   5.1875    0.4440E+001
   5.1950    0.4393E+001
   5.2026    0.4343E+001
   5.2101    0.4291E+001
   5.2176    0.4240E+001
   5.2251    0.4189E+001
   5.2326    0.4140E+001
   5.2401    0.4094E+001
   5.2476    0.4051E+001
   5.2551    0.4012E+001
   5.2626    0.3978E+001
   5.2701    0.3949E+001
   5.2776    0.3924E+001
   5.2851    0.3905E+001
   5.2926    0.3890E+001
   5.3001    0.3879E+001
   5.3076    0.3871E+001
   5.3151    0.3867E+001
   5.3226    0.3865E+001
   5.3301    0.3865E+001
   5.3376    0.3866E+001
   5.3451    0.3868E+001
   5.3526    0.3869E+001
   5.3601    0.3869E+001
   5.3676    0.3867E+001
   5.3751    0.3863E+001
   5.3826    0.3856E+001
   5.3901    0.3845E+001
   5.3976    0.3830E+001
   5.4051    0.3811E+001
   5.4126    0.3788E+001
   5.4201    0.3758E+001
   5.4276    0.3723E+001
   5.4351    0.3682E+001
   5.4426    0.3635E+001
   5.4501    0.3582E+001
   5.4576    0.3522E+001
   5.4651    0.3457E+001
   5.4726    0.3385E+001
   5.4801    0.3309E+001
   5.4876    0.3229E+001
   5.4951    0.3146E+001
   5.5026    0.3060E+001
   5.5101    0.2974E+001
   5.5176    0.2887E+001
   5.5251    0.2803E+001
   5.5326    0.2722E+001
   5.5401    0.2645E+001
   5.5476    0.2575E+001
   5.5551    0.2512E+001
   5.5626    0.2457E+001
   5.5701    0.2412E+001
   5.5776    0.2376E+001
   5.5851    0.2352E+001
   5.5926    0.2337E+001
   5.6002    0.2334E+001
   5.6077    0.2341E+001
   5.6152    0.2358E+001
   5.6227    0.2385E+001
   5.6302    0.2420E+001
   5.6377    0.2463E+001
   5.6452    0.2513E+001
   5.6527    0.2569E+001
   5.6602    0.2630E+001
   5.6677    0.2694E+001
   5.6752    0.2762E+001
   5.6827    0.2831E+001
   5.6902    0.2901E+001
   5.6977    0.2971E+001
   5.7052    0.3039E+001
   5.7127    0.3106E+001
   5.7202    0.3171E+001
   5.7277    0.3232E+001
   5.7352    0.3289E+001
   5.7427    0.3341E+001
   5.7502    0.3389E+001
   5.7577    0.3431E+001
   5.7652    0.3469E+001
   5.7727    0.3500E+001
   5.7802    0.3526E+001
   5.7877    0.3548E+001
   5.7952    0.3564E+001
   5.8027    0.3576E+001
   5.8102    0.3584E+001
   5.8177    0.3589E+001
   5.8252    0.3591E+001
   5.8327    0.3591E+001
   5.8402    0.3589E+001
   5.8477    0.3587E+001
   5.8552    0.3584E+001
   5.8627    0.3581E+001
   5.8702    0.3577E+001
   5.8777    0.3574E+001
   5.8852    0.3571E+001
   5.8927    0.3567E+001
   5.9002    0.3563E+001
   5.9077    0.3557E+001
   5.9152    0.3551E+001
   5.9227    0.3542E+001
   5.9302    0.3531E+001
   5.9377    0.3517E+001
   5.9452    0.3500E+001
   5.9527    0.3479E+001
   5.9602    0.3455E+001
   5.9677    0.3427E+001
   5.9752    0.3395E+001
   5.9827    0.3359E+001
   5.9902    0.3321E+001
   5.9977    0.3280E+001
   6.0053    0.3237E+001
   6.0128    0.3193E+001
   6.0203    0.3148E+001
   6.0278    0.3103E+001
   6.0353    0.3060E+001
   6.0428    0.3018E+001
   6.0503    0.2979E+001
   6.0578    0.2942E+001
   6.0653    0.2909E+001
   6.0728    0.2880E+001
   6.0803    0.2855E+001
   6.0878    0.2834E+001
   6.0953    0.2817E+001
   6.1028    0.2804E+001
   6.1103    0.2795E+001
   6.1178    0.2790E+001
   6.1253    0.2789E+001
   6.1328    0.2791E+001
   6.1403    0.2796E+001
   6.1478    0.2804E+001
   6.1553    0.2814E+001
   6.1628    0.2827E+001
   6.1703    0.2841E+001
   6.1778    0.2857E+001
   6.1853    0.2874E+001
   6.1928    0.2891E+001
   6.2003    0.2908E+001
   6.2078    0.2924E+001
   6.2153    0.2939E+001
   6.2228    0.2952E+001
   6.2303    0.2963E+001
   6.2378    0.2970E+001
   6.2453    0.2974E+001
   6.2528    0.2974E+001
   6.2603    0.2970E+001
   6.2678    0.2961E+001
   6.2753    0.2948E+001
   6.2828    0.2931E+001
   6.2903    0.2909E+001
   6.2978    0.2883E+001
   6.3053    0.2854E+001
   6.3128    0.2823E+001
   6.3203    0.2789E+001
   6.3278    0.2755E+001
   6.3353    0.2720E+001
   6.3428    0.2687E+001
   6.3503    0.2655E+001
   6.3578    0.2626E+001
   6.3653    0.2601E+001
   6.3728    0.2580E+001
   6.3803    0.2564E+001
   6.3878    0.2554E+001
   6.3953    0.2549E+001
   6.4029    0.2550E+001
   6.4104    0.2556E+001
   6.4179    0.2568E+001
   6.4254    0.2584E+001
   6.4329    0.2605E+001
   6.4404    0.2630E+001
   6.4479    0.2657E+001
   6.4554    0.2686E+001
   6.4629    0.2717E+001
   6.4704    0.2747E+001
   6.4779    0.2777E+001
   6.4854    0.2805E+001
   6.4929    0.2831E+001
   6.5004    0.2855E+001
   6.5079    0.2876E+001
   6.5154    0.2893E+001
   6.5229    0.2908E+001
   6.5304    0.2919E+001
   6.5379    0.2927E+001
   6.5454    0.2932E+001
   6.5529    0.2935E+001
   6.5604    0.2935E+001
   6.5679    0.2934E+001
   6.5754    0.2930E+001
   6.5829    0.2925E+001
   6.5904    0.2919E+001
   6.5979    0.2912E+001
   6.6054    0.2903E+001
   6.6129    0.2893E+001
   6.6204    0.2883E+001
   6.6279    0.2870E+001
   6.6354    0.2856E+001
   6.6429    0.2841E+001
   6.6504    0.2824E+001
   6.6579    0.2805E+001
   6.6654    0.2785E+001
   6.6729    0.2762E+001
   6.6804    0.2739E+001
   6.6879    0.2714E+001
   6.6954    0.2687E+001
   6.7029    0.2660E+001
   6.7104    0.2633E+001
   6.7179    0.2605E+001
   6.7254    0.2578E+001
   6.7329    0.2552E+001
   6.7404    0.2527E+001
   6.7479    0.2504E+001
   6.7554    0.2482E+001
   6.7629    0.2464E+001
   6.7704    0.2448E+001
   6.7779    0.2435E+001
   6.7854    0.2426E+001
   6.7929    0.2422E+001
   6.8005    0.2421E+001
   6.8080    0.2426E+001
   6.8155    0.2436E+001
   6.8230    0.2451E+001
   6.8305    0.2473E+001
   6.8380    0.2500E+001
   6.8455    0.2533E+001
   6.8530    0.2573E+001
   6.8605    0.2618E+001
   6.8680    0.2669E+001
   6.8755    0.2725E+001
   6.8830    0.2785E+001
   6.8905    0.2848E+001
   6.8980    0.2914E+001
   6.9055    0.2981E+001
   6.9130    0.3049E+001
   6.9205    0.3116E+001
   6.9280    0.3181E+001
   6.9355    0.3243E+001
   6.9430    0.3302E+001
   6.9505    0.3355E+001
   6.9580    0.3403E+001
   6.9655    0.3444E+001
   6.9730    0.3479E+001
   6.9805    0.3506E+001
   6.9880    0.3524E+001
   6.9955    0.3535E+001
   7.0030    0.3537E+001
   7.0105    0.3530E+001
   7.0180    0.3516E+001
   7.0255    0.3492E+001
   7.0330    0.3461E+001
   7.0405    0.3423E+001
   7.0480    0.3378E+001
   7.0555    0.3327E+001
   7.0630    0.3270E+001
   7.0705    0.3210E+001
   7.0780    0.3146E+001
   7.0855    0.3079E+001
   7.0930    0.3011E+001
   7.1005    0.2942E+001
   7.1080    0.2874E+001
   7.1155    0.2805E+001
   7.1230    0.2738E+001
   7.1305    0.2673E+001
   7.1380    0.2609E+001
   7.1455    0.2549E+001
   7.1530    0.2492E+001
   7.1605    0.2438E+001
   7.1680    0.2388E+001
   7.1755    0.2343E+001
   7.1830    0.2303E+001
   7.1905    0.2269E+001
   7.1980    0.2241E+001
   7.2056    0.2221E+001
   7.2131    0.2208E+001
   7.2206    0.2204E+001
   7.2281    0.2209E+001
   7.2356    0.2222E+001
   7.2431    0.2246E+001
   7.2506    0.2278E+001
   7.2581    0.2319E+001
   7.2656    0.2369E+001
   7.2731    0.2426E+001
   7.2806    0.2490E+001
   7.2881    0.2559E+001
   7.2956    0.2631E+001
   7.3031    0.2706E+001
   7.3106    0.2781E+001
   7.3181    0.2854E+001
   7.3256    0.2924E+001
   7.3331    0.2989E+001
   7.3406    0.3048E+001
   7.3481    0.3099E+001
   7.3556    0.3142E+001
   7.3631    0.3177E+001
   7.3706    0.3203E+001
   7.3781    0.3221E+001
   7.3856    0.3231E+001
   7.3931    0.3236E+001
   7.4006    0.3235E+001
   7.4081    0.3231E+001
   7.4156    0.3225E+001
   7.4231    0.3219E+001
   7.4306    0.3215E+001
   7.4381    0.3215E+001
   7.4456    0.3219E+001
   7.4531    0.3229E+001
   7.4606    0.3245E+001
   7.4681    0.3268E+001
   7.4756    0.3297E+001
   7.4831    0.3333E+001
   7.4906    0.3374E+001
   7.4981    0.3419E+001
   7.5056    0.3466E+001
   7.5131    0.3515E+001
   7.5206    0.3563E+001
   7.5281    0.3609E+001
   7.5356    0.3651E+001
   7.5431    0.3687E+001
   7.5506    0.3717E+001
   7.5581    0.3740E+001
   7.5656    0.3754E+001
   7.5731    0.3760E+001
   7.5806    0.3758E+001
   7.5881    0.3748E+001
   7.5956    0.3732E+001
   7.6032    0.3710E+001
   7.6107    0.3683E+001
   7.6182    0.3653E+001
   7.6257    0.3621E+001
   7.6332    0.3590E+001
   7.6407    0.3560E+001
   7.6482    0.3533E+001
   7.6557    0.3510E+001
   7.6632    0.3492E+001
   7.6707    0.3479E+001
   7.6782    0.3473E+001
   7.6857    0.3473E+001
   7.6932    0.3479E+001
   7.7007    0.3492E+001
   7.7082    0.3510E+001
   7.7157    0.3534E+001
   7.7232    0.3562E+001
   7.7307    0.3594E+001
   7.7382    0.3629E+001
   7.7457    0.3666E+001
   7.7532    0.3704E+001
   7.7607    0.3742E+001
   7.7682    0.3779E+001
   7.7757    0.3815E+001
   7.7832    0.3848E+001
   7.7907    0.3878E+001
   7.7982    0.3904E+001
   7.8057    0.3926E+001
   7.8132    0.3944E+001
   7.8207    0.3958E+001
   7.8282    0.3967E+001
   7.8357    0.3972E+001
   7.8432    0.3973E+001
   7.8507    0.3970E+001
   7.8582    0.3965E+001
   7.8657    0.3957E+001
   7.8732    0.3947E+001
   7.8807    0.3935E+001
   7.8882    0.3923E+001
   7.8957    0.3909E+001
   7.9032    0.3895E+001
   7.9107    0.3880E+001
   7.9182    0.3864E+001
   7.9257    0.3847E+001
   7.9332    0.3830E+001
   7.9407    0.3810E+001
   7.9482    0.3789E+001
   7.9557    0.3765E+001
   7.9632    0.3738E+001
   7.9707    0.3708E+001
   7.9782    0.3673E+001
   7.9857    0.3633E+001
   7.9932    0.3589E+001
   8.0008    0.3539E+001
   8.0083    0.3483E+001
   8.0158    0.3422E+001
   8.0233    0.3355E+001
   8.0308    0.3283E+001
   8.0383    0.3207E+001
   8.0458    0.3126E+001
   8.0533    0.3041E+001
   8.0608    0.2954E+001
   8.0683    0.2864E+001
   8.0758    0.2774E+001
   8.0833    0.2683E+001
   8.0908    0.2594E+001
   8.0983    0.2505E+001
   8.1058    0.2420E+001
   8.1133    0.2337E+001
   8.1208    0.2258E+001
   8.1283    0.2182E+001
   8.1358    0.2111E+001
   8.1433    0.2044E+001
   8.1508    0.1982E+001
   8.1583    0.1923E+001
   8.1658    0.1869E+001
   8.1733    0.1818E+001
   8.1808    0.1770E+001
   8.1883    0.1725E+001
   8.1958    0.1682E+001
   8.2033    0.1642E+001
   8.2108    0.1603E+001
   8.2183    0.1566E+001
   8.2258    0.1529E+001
   8.2333    0.1494E+001
   8.2408    0.1459E+001
   8.2483    0.1425E+001
   8.2558    0.1392E+001
   8.2633    0.1359E+001
   8.2708    0.1327E+001
   8.2783    0.1296E+001
   8.2858    0.1266E+001
   8.2933    0.1238E+001
   8.3008    0.1210E+001
   8.3083    0.1185E+001
   8.3158    0.1162E+001
   8.3233    0.1140E+001
   8.3308    0.1121E+001
   8.3383    0.1105E+001
   8.3458    0.1092E+001
   8.3533    0.1082E+001
   8.3608    0.1075E+001
   8.3683    0.1072E+001
   8.3758    0.1073E+001
   8.3833    0.1077E+001
   8.3908    0.1086E+001
   8.3983    0.1098E+001
   8.4059    0.1114E+001
   8.4134    0.1133E+001
   8.4209    0.1155E+001
   8.4284    0.1180E+001
   8.4359    0.1206E+001
   8.4434    0.1233E+001
   8.4509    0.1260E+001
   8.4584    0.1286E+001
   8.4659    0.1310E+001
   8.4734    0.1332E+001
   8.4809    0.1351E+001
   8.4884    0.1365E+001
   8.4959    0.1376E+001
   8.5034    0.1381E+001
   8.5109    0.1382E+001
   8.5184    0.1377E+001
   8.5259    0.1368E+001
   8.5334    0.1354E+001
   8.5409    0.1336E+001
   8.5484    0.1315E+001
   8.5559    0.1290E+001
   8.5634    0.1263E+001
   8.5709    0.1234E+001
   8.5784    0.1203E+001
   8.5859    0.1171E+001
   8.5934    0.1139E+001
   8.6009    0.1106E+001
   8.6084    0.1074E+001
   8.6159    0.1042E+001
   8.6234    0.1011E+001
   8.6309    0.9812E+000
   8.6384    0.9526E+000
   8.6459    0.9256E+000
   8.6534    0.9005E+000
   8.6609    0.8777E+000
   8.6684    0.8574E+000
   8.6759    0.8399E+000
   8.6834    0.8256E+000
   8.6909    0.8146E+000
   8.6984    0.8072E+000
   8.7059    0.8034E+000
   8.7134    0.8033E+000
   8.7209    0.8069E+000
   8.7284    0.8138E+000
   8.7359    0.8238E+000
   8.7434    0.8363E+000
   8.7509    0.8509E+000
   8.7584    0.8668E+000
   8.7659    0.8833E+000
   8.7734    0.8995E+000
   8.7809    0.9146E+000
   8.7884    0.9279E+000
   8.7959    0.9385E+000
   8.8035    0.9458E+000
   8.8110    0.9491E+000
   8.8185    0.9481E+000
   8.8260    0.9423E+000
   8.8335    0.9317E+000
   8.8410    0.9162E+000
   8.8485    0.8960E+000
   8.8560    0.8713E+000
   8.8635    0.8426E+000
   8.8710    0.8104E+000
   8.8785    0.7753E+000
   8.8860    0.7380E+000
   8.8935    0.6994E+000
   8.9010    0.6601E+000
   8.9085    0.6209E+000
   8.9160    0.5825E+000
   8.9235    0.5457E+000
   8.9310    0.5109E+000
   8.9385    0.4787E+000
   8.9460    0.4495E+000
   8.9535    0.4235E+000
   8.9610    0.4008E+000
   8.9685    0.3814E+000
   8.9760    0.3652E+000
   8.9835    0.3520E+000
   8.9910    0.3413E+000
   8.9985    0.3327E+000
   9.0060    0.3259E+000
   9.0135    0.3202E+000
   9.0210    0.3153E+000
   9.0285    0.3107E+000
   9.0360    0.3061E+000
   9.0435    0.3011E+000
   9.0510    0.2956E+000
   9.0585    0.2896E+000
   9.0660    0.2830E+000
   9.0735    0.2760E+000
   9.0810    0.2689E+000
   9.0885    0.2620E+000
   9.0960    0.2557E+000
   9.1035    0.2503E+000
   9.1110    0.2464E+000
   9.1185    0.2443E+000
   9.1260    0.2444E+000
   9.1335    0.2469E+000
   9.1410    0.2522E+000
   9.1485    0.2604E+000
   9.1560    0.2715E+000
   9.1635    0.2855E+000
   9.1710    0.3023E+000
   9.1785    0.3216E+000
   9.1860    0.3432E+000
   9.1935    0.3666E+000
   9.2011    0.3915E+000
   9.2086    0.4173E+000
   9.2161    0.4435E+000
   9.2236    0.4697E+000
   9.2311    0.4952E+000
   9.2386    0.5196E+000
   9.2461    0.5423E+000
   9.2536    0.5629E+000
   9.2611    0.5810E+000
   9.2686    0.5961E+000
   9.2761    0.6080E+000
   9.2836    0.6165E+000
   9.2911    0.6215E+000
   9.2986    0.6229E+000
   9.3061    0.6209E+000
   9.3136    0.6156E+000
   9.3211    0.6072E+000
   9.3286    0.5962E+000
   9.3361    0.5830E+000
   9.3436    0.5679E+000
   9.3511    0.5515E+000
   9.3586    0.5341E+000
   9.3661    0.5162E+000
   9.3736    0.4982E+000
   9.3811    0.4802E+000
   9.3886    0.4627E+000
   9.3961    0.4455E+000
   9.4036    0.4289E+000
   9.4111    0.4127E+000
   9.4186    0.3969E+000
   9.4261    0.3812E+000
   9.4336    0.3656E+000
   9.4411    0.3497E+000
   9.4486    0.3336E+000
   9.4561    0.3170E+000
   9.4636    0.2999E+000
   9.4711    0.2822E+000
   9.4786    0.2640E+000
   9.4861    0.2454E+000
   9.4936    0.2264E+000
   9.5011    0.2073E+000
   9.5086    0.1883E+000
   9.5161    0.1696E+000
   9.5236    0.1514E+000
   9.5311    0.1339E+000
   9.5386    0.1174E+000
   9.5461    0.1019E+000
   9.5536    0.8761E-001
   9.5611    0.7461E-001
   9.5686    0.6294E-001
   9.5761    0.5260E-001
   9.5836    0.4357E-001
   9.5911    0.3581E-001
   9.5986    0.2925E-001
   9.6062    0.2381E-001
   9.6137    0.1940E-001
   9.6212    0.1594E-001
   9.6287    0.1335E-001
   9.6362    0.1156E-001
   9.6437    0.1049E-001
   9.6512    0.1011E-001
   9.6587    0.1038E-001
   9.6662    0.1128E-001
   9.6737    0.1278E-001
   9.6812    0.1490E-001
   9.6887    0.1763E-001
   9.6962    0.2098E-001
   9.7037    0.2495E-001
   9.7112    0.2954E-001
   9.7187    0.3473E-001
   9.7262    0.4051E-001
   9.7337    0.4684E-001
   9.7412    0.5367E-001
   9.7487    0.6091E-001
   9.7562    0.6848E-001
   9.7637    0.7627E-001
   9.7712    0.8418E-001
   9.7787    0.9207E-001
   9.7862    0.9981E-001
   9.7937    0.1073E+000
   9.8012    0.1144E+000
   9.8087    0.1210E+000
   9.8162    0.1270E+000
   9.8237    0.1324E+000
   9.8312    0.1371E+000
   9.8387    0.1411E+000
   9.8462    0.1444E+000
   9.8537    0.1471E+000
   9.8612    0.1492E+000
   9.8687    0.1508E+000
   9.8762    0.1520E+000
   9.8837    0.1529E+000
   9.8912    0.1535E+000
   9.8987    0.1539E+000
   9.9062    0.1543E+000
   9.9137    0.1545E+000
   9.9212    0.1546E+000
   9.9287    0.1546E+000
   9.9362    0.1544E+000
   9.9437    0.1541E+000
   9.9512    0.1534E+000
   9.9587    0.1524E+000
   9.9662    0.1509E+000
   9.9737    0.1488E+000
   9.9812    0.1461E+000
   9.9887    0.1427E+000
   9.9962    0.1386E+000
  10.0038    0.1337E+000
  10.0113    0.1281E+000
  10.0188    0.1219E+000
  10.0263    0.1150E+000
  10.0338    0.1076E+000
  10.0413    0.9986E-001
  10.0488    0.9184E-001
  10.0563    0.8370E-001
  10.0638    0.7556E-001
  10.0713    0.6757E-001
  10.0788    0.5983E-001
  10.0863    0.5246E-001
  10.0938    0.4553E-001
  10.1013    0.3912E-001
  10.1088    0.3327E-001
  10.1163    0.2800E-001
  10.1238    0.2333E-001
  10.1313    0.1923E-001
  10.1388    0.1568E-001
  10.1463    0.1265E-001
  10.1538    0.1010E-001
  10.1613    0.7976E-002
  10.1688    0.6231E-002
  10.1763    0.4816E-002
  10.1838    0.3682E-002
  10.1913    0.2784E-002
  10.1988    0.2083E-002
  10.2063    0.1541E-002
  10.2138    0.1128E-002
  10.2213    0.8161E-003
  10.2288    0.5842E-003
  10.2363    0.4136E-003
  10.2438    0.2896E-003
  10.2513    0.2006E-003
  10.2588    0.1374E-003
  10.2663    0.9303E-004
  10.2738    0.6231E-004
  10.2813    0.4128E-004
  10.2888    0.2704E-004
  10.2963    0.1752E-004
  10.3038    0.1122E-004
  10.3113    0.7109E-005
  10.3188    0.4454E-005
  10.3263    0.2759E-005
  10.3338    0.1690E-005
  10.3413    0.1024E-005
  10.3488    0.6135E-006
  10.3563    0.3635E-006
  10.3638    0.2129E-006
  10.3713    0.1233E-006
  10.3788    0.7066E-007
  10.3863    0.4002E-007
  10.3938    0.2242E-007
  10.4014    0.1242E-007
  10.4089    0.6801E-008
  10.4164    0.3683E-008
  10.4239    0.1973E-008
  10.4314    0.1045E-008
  10.4389    0.5470E-009
  10.4464    0.2832E-009
  10.4539    0.1450E-009
  10.4614    0.7342E-010
  10.4689    0.3676E-010
  10.4764    0.1820E-010
  10.4839    0.8907E-011
  10.4914    0.4311E-011
  10.4989    0.2064E-011
  10.5064    0.9766E-012
  10.5139    0.4570E-012
  10.5214    0.2115E-012
  10.5289    0.9678E-013
  10.5364    0.4379E-013
  10.5439    0.1959E-013
  10.5514    0.8667E-014
  10.5589    0.3791E-014
  10.5664    0.1640E-014
  10.5739    0.7014E-015
  10.5814    0.2966E-015
  10.5889    0.1241E-015
  10.5964    0.5130E-016
  10.6039    0.2098E-016
  10.6114    0.8481E-017
  10.6189    0.3391E-017
  10.6264    0.1340E-017
  10.6339    0.5240E-018
  10.6414    0.2025E-018
  10.6489    0.7741E-019
  10.6564    0.2925E-019
  10.6639    0.1093E-019
  10.6714    0.4040E-020
  10.6789    0.1476E-020
  10.6864    0.5333E-021
  10.6939    0.1905E-021
  10.7014    0.6730E-022
  10.7089    0.2351E-022
  10.7164    0.8119E-023
  10.7239    0.2773E-023
  10.7314    0.9364E-024
  10.7389    0.3127E-024
  10.7464    0.1032E-024
  10.7539    0.3371E-025
  10.7614    0.1088E-025
  10.7689    0.3474E-026
  10.7764    0.1096E-026
  10.7839    0.3422E-027
  10.7914    0.1056E-027
  10.7989    0.3223E-028
  10.8065    0.9727E-029
  10.8140    0.2902E-029
  10.8215    0.8563E-030
  10.8290    0.2498E-030
  10.8365    0.7206E-031
  10.8440    0.2056E-031
  10.8515    0.5798E-032
  10.8590    0.1617E-032
  10.8665    0.4459E-033
  10.8740    0.1216E-033
  10.8815    0.3279E-034
  10.8890    0.8742E-035
  10.8965    0.2305E-035
  10.9040    0.6008E-036
  10.9115    0.1549E-036
  10.9190    0.3947E-037
  10.9265    0.9948E-038
  10.9340    0.2479E-038
  10.9415    0.6109E-039
  10.9490    0.1489E-039
  10.9565    0.3587E-040
  10.9640    0.8545E-041
  10.9715    0.2013E-041
  10.9790    0.4689E-042
  10.9865    0.1080E-042
  10.9940    0.2460E-043
  11.0015    0.5539E-044
  11.0090    0.1233E-044
  11.0165    0.2716E-045
  11.0240    0.5913E-046
  11.0315    0.1273E-046
  11.0390    0.2710E-047
  11.0465    0.5705E-048
  11.0540    0.1187E-048
  11.0615    0.2444E-049
  11.0690    0.4973E-050
  11.0765    0.1001E-050
  11.0840    0.1991E-051
  11.0915    0.3918E-052
  11.0990    0.7623E-053
  11.1065    0.1466E-053
  11.1140    0.2789E-054
  11.1215    0.5247E-055
  11.1290    0.9758E-056
  11.1365    0.1795E-056
  11.1440    0.3263E-057
  11.1515    0.5868E-058
  11.1590    0.1043E-058
  11.1665    0.1834E-059
  11.1740    0.3189E-060
  11.1815    0.5481E-061
  11.1890    0.9316E-062
  11.1965    0.1566E-062
  11.2041    0.2602E-063
  11.2116    0.4276E-064
  11.2191    0.6948E-065
  11.2266    0.1116E-065
  11.2341    0.1774E-066
  11.2416    0.2786E-067
  11.2491    0.4328E-068
  11.2566    0.6648E-069
  11.2641    0.1010E-069
  11.2716    0.1516E-070
  11.2791    0.2252E-071
  11.2866    0.3306E-072
  11.2941    0.4801E-073
  11.3016    0.6892E-074
  11.3091    0.9784E-075
  11.3166    0.1373E-075
  11.3241    0.1906E-076
  11.3316    0.2617E-077
  11.3391    0.3551E-078
  11.3466    0.4765E-079
  11.3541    0.6323E-080
  11.3616    0.8296E-081
  11.3691    0.1076E-081
  11.3766    0.1381E-082
  11.3841    0.1752E-083
  11.3916    0.2197E-084
  11.3991    0.2725E-085
  11.4066    0.3342E-086
  11.4141    0.4052E-087
  11.4216    0.4859E-088
  11.4291    0.5761E-089
  11.4366    0.6755E-090
  11.4441    0.7831E-091
  11.4516    0.8976E-092
  11.4591    0.1017E-092
  11.4666    0.1140E-093
  11.4741    0.1264E-094
  11.4816    0.1385E-095
  11.4891    0.1501E-096
  11.4966    0.1608E-097
  11.5041    0.1704E-098
  11.5116    0.1785E-099
  11.5191    0.1849E-100
  11.5266    0.1894E-101
  11.5341    0.1918E-102
  11.5416    0.1921E-103
  11.5491    0.1902E-104
  11.5566    0.1863E-105
  11.5641    0.1803E-106
  11.5716    0.1727E-107
  11.5791    0.1635E-108
  11.5866    0.1530E-109
  11.5941    0.1416E-110
  11.6017    0.1296E-111
  11.6092    0.1173E-112
  11.6167    0.1050E-113
  11.6242    0.9289E-115
  11.6317    0.8128E-116
  11.6392    0.7032E-117
  11.6467    0.6016E-118
  11.6542    0.5089E-119
  11.6617    0.4257E-120
  11.6692    0.3521E-121
  11.6767    0.2879E-122
  11.6842    0.2328E-123
  11.6917    0.1862E-124
  11.6992    0.1472E-125
  11.7067    0.1151E-126
  11.7142    0.8898E-128
  11.7217    0.6802E-129
  11.7292    0.5141E-130
  11.7367    0.3843E-131
  11.7442    0.2840E-132
  11.7517    0.2075E-133
  11.7592    0.1500E-134
  11.7667    0.1072E-135
  11.7742    0.7571E-137
  11.7817    0.5289E-138
  11.7892    0.3654E-139
  11.7967    0.2496E-140
  11.8042    0.1686E-141
  11.8117    0.1126E-142
  11.8192    0.7434E-144
  11.8267    0.4854E-145
  11.8342    0.3134E-146
  11.8417    0.2001E-147
  11.8492    0.1263E-148
  11.8567    0.7887E-150
  11.8642    0.4868E-151
  11.8717    0.2971E-152
  11.8792    0.1793E-153
  11.8867    0.1070E-154
  11.8942    0.6315E-156
  11.9017    0.3685E-157
  11.9092    0.2126E-158
  11.9167    0.1213E-159
  11.9242    0.6841E-161
  11.9317    0.3816E-162
  11.9392    0.2105E-163
  11.9467    0.1148E-164
  11.9542    0.6190E-166
  11.9617    0.3301E-167
  11.9692    0.1741E-168
  11.9767    0.9075E-170
  11.9842    0.4678E-171
  11.9917    0.2385E-172
  11.9992    0.1202E-173
  12.0068    0.5992E-175
  12.0143    0.2953E-176
  12.0218    0.1439E-177
  12.0293    0.6935E-179
  12.0368    0.3304E-180
  12.0443    0.1557E-181
  12.0518    0.7253E-183
  12.0593    0.3341E-184
  12.0668    0.1522E-185
  12.0743    0.6854E-187
  12.0818    0.3053E-188
  12.0893    0.1344E-189
  12.0968    0.5854E-191
  12.1043    0.2521E-192
  12.1118    0.1073E-193
  12.1193    0.4518E-195
  12.1268    0.1881E-196
  12.1343    0.7742E-198
  12.1418    0.3151E-199
  12.1493    0.1268E-200
  12.1568    0.5047E-202
  12.1643    0.1986E-203
  12.1718    0.7728E-205
  12.1793    0.2973E-206
  12.1868    0.1131E-207
  12.1943    0.4255E-209
  12.2018    0.1583E-210
  12.2093    0.5822E-212
  12.2168    0.2117E-213
  12.2243    0.7615E-215
  12.2318    0.2708E-216
  12.2393    0.9521E-218
  12.2468    0.3310E-219
  12.2543    0.1138E-220
  12.2618    0.3869E-222
  12.2693    0.1300E-223
  12.2768    0.4323E-225
  12.2843    0.1421E-226
  12.2918    0.4617E-228
  12.2993    0.1484E-229
  12.3068    0.4714E-231
  12.3143    0.1481E-232
  12.3218    0.4601E-234
  12.3293    0.1414E-235
  12.3368    0.4294E-237
  12.3443    0.1290E-238
  12.3518    0.3830E-240
  12.3593    0.1125E-241
  12.3668    0.3267E-243
  12.3743    0.9379E-245
  12.3818    0.2663E-246
  12.3893    0.7476E-248
  12.3968    0.2075E-249
  12.4044    0.5697E-251
  12.4119    0.1546E-252
  12.4194    0.4150E-254
  12.4269    0.1101E-255
  12.4344    0.2890E-257
  12.4419    0.7500E-259
  12.4494    0.1924E-260
  12.4569    0.4882E-262
  12.4644    0.1225E-263
  12.4719    0.3038E-265
  12.4794    0.7451E-267
  12.4869    0.1807E-268
  12.4944    0.4334E-270
  12.5019    0.1028E-271
  12.5094    0.2410E-273
  12.5169    0.5587E-275
  12.5244    0.1281E-276
  12.5319    0.2904E-278
  12.5394    0.6509E-280
  12.5469    0.1443E-281
  12.5544    0.3162E-283
  12.5619    0.6853E-285
  12.5694    0.1469E-286
  12.5769    0.3112E-288
  12.5844    0.6520E-290
  12.5919    0.1351E-291
  12.5994    0.2767E-293
  12.6069    0.5605E-295
  12.6144    0.1123E-296
  12.6219    0.2224E-298
  12.6294    0.4355E-300
  12.6369    0.8433E-302
  12.6444    0.1615E-303
  12.6519    0.3057E-305
  12.6594    0.5724E-307
  12.6669    0.1060E-308
  12.6744    0.1940E-310
  12.6819    0.3511E-312
  12.6894    0.6284E-314
  12.6969    0.1112E-315
  12.7044    0.1946E-317
  12.7119    0.3367E-319
  12.7194    0.5731E-321
  12.7269    0.9881E-323
  12.7344    0.0000E+000
  12.7419    0.0000E+000
  12.7494    0.0000E+000
  12.7569    0.0000E+000
  12.7644    0.0000E+000
  12.7719    0.0000E+000
  12.7794    0.0000E+000
  12.7869    0.0000E+000
  12.7944    0.0000E+000
  12.8020    0.0000E+000
  12.8095    0.0000E+000
  12.8170    0.0000E+000
  12.8245    0.0000E+000
  12.8320    0.0000E+000
  12.8395    0.0000E+000
  12.8470    0.0000E+000
  12.8545    0.0000E+000
  12.8620    0.0000E+000
  12.8695    0.0000E+000
  12.8770    0.0000E+000
  12.8845    0.0000E+000
  12.8920    0.0000E+000
  12.8995    0.0000E+000
  12.9070    0.0000E+000
  12.9145    0.0000E+000
  12.9220    0.0000E+000
  12.9295    0.0000E+000
  12.9370    0.0000E+000
  12.9445    0.0000E+000
  12.9520    0.0000E+000
  12.9595    0.0000E+000
  12.9670    0.0000E+000
  12.9745    0.0000E+000
  12.9820    0.0000E+000
  12.9895    0.0000E+000
  12.9970    0.0000E+000
  13.0045    0.0000E+000
  13.0120    0.0000E+000
  13.0195    0.0000E+000
  13.0270    0.0000E+000
  13.0345    0.0000E+000
  13.0420    0.0000E+000
  13.0495    0.0000E+000
  13.0570    0.0000E+000
  13.0645    0.0000E+000
  13.0720    0.0000E+000
  13.0795    0.0000E+000
  13.0870    0.0000E+000
  13.0945    0.0000E+000
  13.1020    0.0000E+000
  13.1095    0.0000E+000
  13.1170    0.0000E+000
  13.1245    0.0000E+000
  13.1320    0.0000E+000
  13.1395    0.0000E+000
  13.1470    0.0000E+000
  13.1545    0.0000E+000
  13.1620    0.0000E+000
  13.1695    0.0000E+000
  13.1770    0.0000E+000
  13.1845    0.0000E+000
  13.1920    0.0000E+000
  13.1995    0.0000E+000
  13.2071    0.0000E+000
  13.2146    0.0000E+000
  13.2221    0.0000E+000
  13.2296    0.0000E+000
  13.2371    0.0000E+000
  13.2446    0.0000E+000
  13.2521    0.0000E+000
  13.2596    0.0000E+000
  13.2671    0.0000E+000
  13.2746    0.0000E+000
  13.2821    0.0000E+000
  13.2896    0.0000E+000
  13.2971    0.0000E+000
  13.3046    0.0000E+000
  13.3121    0.0000E+000
  13.3196    0.0000E+000
  13.3271    0.0000E+000
  13.3346    0.0000E+000
  13.3421    0.0000E+000
  13.3496    0.0000E+000
  13.3571    0.0000E+000
  13.3646    0.0000E+000
  13.3721    0.0000E+000
  13.3796    0.0000E+000
  13.3871    0.0000E+000
  13.3946    0.0000E+000
  13.4021    0.0000E+000
  13.4096    0.0000E+000
  13.4171    0.0000E+000
  13.4246    0.0000E+000
  13.4321    0.0000E+000
  13.4396    0.0000E+000
  13.4471    0.0000E+000
  13.4546    0.0000E+000
  13.4621    0.0000E+000
  13.4696    0.0000E+000
  13.4771    0.0000E+000
  13.4846    0.0000E+000
  13.4921    0.0000E+000
  13.4996    0.0000E+000
  13.5071    0.0000E+000
  13.5146    0.0000E+000
  13.5221    0.0000E+000
  13.5296    0.0000E+000
  13.5371    0.0000E+000
  13.5446    0.0000E+000
  13.5521    0.0000E+000
  13.5596    0.0000E+000
  13.5671    0.0000E+000
  13.5746    0.0000E+000
  13.5821    0.0000E+000
  13.5896    0.0000E+000
  13.5971    0.0000E+000
  13.6047    0.0000E+000
  13.6122    0.0000E+000
  13.6197    0.0000E+000
  13.6272    0.0000E+000
  13.6347    0.0000E+000
  13.6422    0.0000E+000
  13.6497    0.0000E+000
  13.6572    0.0000E+000
  13.6647    0.0000E+000
  13.6722    0.0000E+000
  13.6797    0.0000E+000
  13.6872    0.0000E+000
  13.6947    0.0000E+000
  13.7022    0.0000E+000
  13.7097    0.0000E+000
  13.7172    0.0000E+000
  13.7247    0.0000E+000
  13.7322    0.0000E+000
  13.7397    0.0000E+000
  13.7472    0.0000E+000
  13.7547    0.0000E+000
  13.7622    0.0000E+000
  13.7697    0.0000E+000
  13.7772    0.0000E+000
  13.7847    0.0000E+000
  13.7922    0.0000E+000
  13.7997    0.0000E+000
  13.8072    0.0000E+000
  13.8147    0.0000E+000
  13.8222    0.0000E+000
  13.8297    0.0000E+000
  13.8372    0.0000E+000
  13.8447    0.0000E+000
  13.8522    0.0000E+000
  13.8597    0.0000E+000
  13.8672    0.0000E+000
  13.8747    0.0000E+000
  13.8822    0.0000E+000
  13.8897    0.0000E+000
  13.8972    0.0000E+000
  13.9047    0.0000E+000
  13.9122    0.0000E+000
  13.9197    0.0000E+000
  13.9272    0.0000E+000
  13.9347    0.0000E+000
  13.9422    0.0000E+000
  13.9497    0.0000E+000
  13.9572    0.0000E+000
  13.9647    0.0000E+000
  13.9722    0.0000E+000
  13.9797    0.0000E+000
  13.9872    0.0000E+000
  13.9947    0.0000E+000
  14.0023    0.0000E+000
  14.0098    0.0000E+000
  14.0173    0.0000E+000
  14.0248    0.0000E+000
  14.0323    0.0000E+000
  14.0398    0.0000E+000
  14.0473    0.0000E+000
  14.0548    0.0000E+000
  14.0623    0.0000E+000
  14.0698    0.0000E+000
  14.0773    0.0000E+000
  14.0848    0.0000E+000
  14.0923    0.0000E+000
  14.0998    0.0000E+000
  14.1073    0.0000E+000
  14.1148    0.0000E+000
  14.1223    0.0000E+000
  14.1298    0.0000E+000
  14.1373    0.0000E+000
  14.1448    0.0000E+000
  14.1523    0.0000E+000
  14.1598    0.0000E+000
  14.1673    0.0000E+000
  14.1748    0.0000E+000
  14.1823    0.0000E+000
  14.1898    0.0000E+000
  14.1973    0.0000E+000
  14.2048    0.0000E+000
  14.2123    0.0000E+000
  14.2198    0.0000E+000
  14.2273    0.0000E+000
  14.2348    0.0000E+000
  14.2423    0.0000E+000
  14.2498    0.0000E+000
  14.2573    0.0000E+000
  14.2648    0.0000E+000
  14.2723    0.0000E+000
  14.2798    0.0000E+000
  14.2873    0.0000E+000
  14.2948    0.0000E+000
  14.3023    0.0000E+000
  14.3098    0.0000E+000
  14.3173    0.0000E+000
  14.3248    0.0000E+000
  14.3323    0.0000E+000
  14.3398    0.0000E+000
  14.3473    0.0000E+000
  14.3548    0.0000E+000
  14.3623    0.0000E+000
  14.3698    0.0000E+000
  14.3773    0.0000E+000
  14.3848    0.0000E+000
  14.3923    0.0000E+000
  14.3998    0.0000E+000
  14.4074    0.0000E+000
  14.4149    0.0000E+000
  14.4224    0.0000E+000
  14.4299    0.0000E+000
  14.4374    0.0000E+000
  14.4449    0.0000E+000
  14.4524    0.0000E+000
  14.4599    0.0000E+000
  14.4674    0.0000E+000
  14.4749    0.0000E+000
  14.4824    0.0000E+000
  14.4899    0.0000E+000
  14.4974    0.0000E+000
  14.5049    0.0000E+000
  14.5124    0.0000E+000
  14.5199    0.0000E+000
  14.5274    0.0000E+000
  14.5349    0.0000E+000
  14.5424    0.0000E+000
  14.5499    0.0000E+000
  14.5574    0.0000E+000
  14.5649    0.0000E+000
  14.5724    0.0000E+000
  14.5799    0.0000E+000
  14.5874    0.0000E+000
  14.5949    0.0000E+000
  14.6024    0.0000E+000
  14.6099    0.0000E+000
  14.6174    0.0000E+000
  14.6249    0.0000E+000
  14.6324    0.0000E+000
  14.6399    0.0000E+000
  14.6474    0.0000E+000
  14.6549    0.0000E+000
  14.6624    0.0000E+000
  14.6699    0.0000E+000
  14.6774    0.0000E+000
  14.6849    0.0000E+000
  14.6924    0.0000E+000
  14.6999    0.0000E+000
  14.7074    0.0000E+000
  14.7149    0.0000E+000
  14.7224    0.0000E+000
  14.7299    0.0000E+000
  14.7374    0.0000E+000
  14.7449    0.0000E+000
  14.7524    0.0000E+000
  14.7599    0.0000E+000
  14.7674    0.0000E+000
  14.7749    0.0000E+000
  14.7824    0.0000E+000
  14.7899    0.0000E+000
  14.7974    0.0000E+000
  14.8050    0.0000E+000
  14.8125    0.0000E+000
  14.8200    0.0000E+000
  14.8275    0.0000E+000
  14.8350    0.0000E+000
  14.8425    0.0000E+000
  14.8500    0.0000E+000
  14.8575    0.0000E+000
  14.8650    0.0000E+000
  14.8725    0.0000E+000
  14.8800    0.0000E+000
  14.8875    0.0000E+000
  14.8950    0.0000E+000
  14.9025    0.0000E+000
  14.9100    0.0000E+000
  14.9175    0.0000E+000
  14.9250    0.0000E+000
  14.9325    0.0000E+000
  14.9400    0.0000E+000
  14.9475    0.0000E+000
  14.9550    0.0000E+000
  14.9625    0.0000E+000
  14.9700    0.0000E+000
  14.9775    0.0000E+000
  14.9850    0.0000E+000
  14.9925    0.0000E+000
  15.0000    0.0000E+000
